SpectraSuite Data File
++++++++++++++++++++++++++++++++++++
Date: Fri Jun 02 14:51:06 CEST 2017
User: INFO_000
Dark Spectrum Present: No
Reference Spectrum Present: No
Number of Sampled Component Spectra: 1
Spectrometers: USB4H00879
Integration Time (usec): 80000 (USB4H00879)
Spectra Averaged: 1 (USB4H00879)
Boxcar Smoothing: 0 (USB4H00879)
Correct for Electrical Dark: No (USB4H00879)
Strobe/Lamp Enabled: No (USB4H00879)
Correct for Detector Non-linearity: No (USB4H00879)
Correct for Stray Light: No (USB4H00879)
Number of Pixels in Processed Spectrum: 3648
>>>>>Begin Processed Spectral Data<<<<<
345.13	1255.40
345.34	1255.40
345.56	1255.40
345.78	1247.21
345.99	1318.89
346.21	1759.21
346.42	1636.33
346.64	1624.04
346.86	1839.08
347.07	1683.43
347.29	1705.96
347.50	1630.18
347.72	1654.76
347.94	1775.59
348.15	1550.31
348.37	1597.42
348.59	1724.39
348.80	1757.16
349.02	1660.90
349.23	1769.44
349.45	1703.91
349.67	1804.26
349.88	1710.05
350.10	1857.51
350.31	1722.34
350.53	1732.58
350.75	1828.84
350.96	1601.51
351.18	1722.34
351.39	1759.21
351.61	1712.10
351.82	1753.06
352.04	1726.44
352.26	1683.43
352.47	1800.16
352.69	1761.25
352.90	1626.09
353.12	1730.53
353.34	1740.77
353.55	1755.11
353.77	1736.68
353.98	1712.10
354.20	1646.57
354.41	1824.74
354.63	1765.35
354.85	1822.69
355.06	1769.44
355.28	1617.90
355.49	1693.67
355.71	1710.05
355.92	1652.71
356.14	1712.10
356.35	1746.92
356.57	1681.38
356.79	1765.35
357.00	1699.81
357.22	1710.05
357.43	1681.38
357.65	1781.73
357.86	1665.00
358.08	1656.81
358.29	1728.49
358.51	1679.33
358.72	1736.68
358.94	1730.53
359.16	1718.25
359.37	1685.48
359.59	1722.34
359.80	1724.39
360.02	1800.16
360.23	1736.68
360.45	1726.44
360.66	1748.97
360.88	1646.57
361.09	1695.72
361.31	1767.40
361.52	1701.86
361.74	1820.64
361.95	1832.93
362.17	1726.44
362.38	1810.40
362.60	1658.85
362.81	1757.16
363.03	1652.71
363.24	1636.33
363.46	1841.12
363.67	1718.25
363.89	1759.21
364.10	1687.53
364.32	1648.61
364.53	1800.16
364.75	1650.66
364.96	1822.69
365.18	1703.91
365.39	1744.87
365.61	1650.66
365.82	1859.56
366.04	1740.77
366.25	1671.14
366.47	1744.87
366.68	1648.61
366.90	1624.04
367.11	1773.54
367.33	1808.36
367.54	1736.68
367.76	1656.81
367.97	1771.49
368.19	1665.00
368.40	1740.77
368.62	1679.33
368.83	1630.18
369.05	1777.64
369.26	1697.77
369.48	1677.29
369.69	1716.20
369.91	1728.49
370.12	1732.58
370.33	1773.54
370.55	1703.91
370.76	1669.09
370.98	1773.54
371.19	1662.95
371.41	1640.42
371.62	1656.81
371.84	1646.57
372.05	1761.25
372.27	1660.90
372.48	1732.58
372.69	1710.05
372.91	1765.35
373.12	1728.49
373.34	1685.48
373.55	1753.06
373.77	1798.12
373.98	1665.00
374.20	1705.96
374.41	1816.55
374.62	1716.20
374.84	1642.47
375.05	1732.58
375.27	1763.30
375.48	1724.39
375.70	1609.70
375.91	1734.63
376.12	1722.34
376.34	1697.77
376.55	1677.29
376.77	1728.49
376.98	1675.24
377.19	1601.51
377.41	1677.29
377.62	1691.62
377.84	1732.58
378.05	1810.40
378.27	1673.19
378.48	1757.16
378.69	1851.36
378.91	1765.35
379.12	1650.66
379.34	1687.53
379.55	1777.64
379.76	1740.77
379.98	1689.57
380.19	1662.95
380.41	1718.25
380.62	1716.20
380.83	1714.15
381.05	1591.27
381.26	1822.69
381.47	1708.01
381.69	1705.96
381.90	1763.30
382.12	1763.30
382.33	1648.61
382.54	1755.11
382.76	1757.16
382.97	1748.97
383.19	1611.75
383.40	1705.96
383.61	1734.63
383.83	1685.48
384.04	1603.56
384.25	1748.97
384.47	1748.97
384.68	1726.44
384.89	1621.99
385.11	1640.42
385.32	1714.15
385.54	1665.00
385.75	1677.29
385.96	1648.61
386.18	1679.33
386.39	1726.44
386.60	1671.14
386.82	1705.96
387.03	1675.24
387.24	1765.35
387.46	1693.67
387.67	1726.44
387.88	1804.26
388.10	1646.57
388.31	1701.86
388.52	1742.82
388.74	1753.06
388.95	1630.18
389.16	1712.10
389.38	1642.47
389.59	1769.44
389.80	1804.26
390.02	1699.81
390.23	1771.49
390.44	1673.19
390.66	1662.95
390.87	1613.80
391.08	1720.29
391.30	1771.49
391.51	1669.09
391.72	1787.88
391.94	1695.72
392.15	1685.48
392.36	1687.53
392.58	1679.33
392.79	1798.12
393.00	1662.95
393.22	1695.72
393.43	1769.44
393.64	1890.28
393.85	1787.88
394.07	1695.72
394.28	1703.91
394.49	1736.68
394.71	1753.06
394.92	1765.35
395.13	1589.22
395.35	1701.86
395.56	1714.15
395.77	1724.39
395.98	1669.09
396.20	1738.73
396.41	1683.43
396.62	1714.15
396.84	1703.91
397.05	1632.23
397.26	1658.85
397.47	1744.87
397.69	1665.00
397.90	1849.32
398.11	1775.59
398.32	1624.04
398.54	1708.01
398.75	1699.81
398.96	1650.66
399.18	1794.02
399.39	1683.43
399.60	1710.05
399.81	1658.85
400.03	1568.74
400.24	1929.19
400.45	1736.68
400.66	1697.77
400.88	1697.77
401.09	1912.80
401.30	1695.72
401.51	1855.46
401.73	1796.07
401.94	1794.02
402.15	1687.53
402.36	1740.77
402.58	1789.92
402.79	1753.06
403.00	1624.04
403.21	1781.73
403.43	1798.12
403.64	1740.77
403.85	1761.25
404.06	1814.50
404.27	1738.73
404.49	1691.62
404.70	1667.05
404.91	1800.16
405.12	1796.07
405.34	1822.69
405.55	1814.50
405.76	1644.52
405.97	1699.81
406.19	1769.44
406.40	1662.95
406.61	1765.35
406.82	1609.70
407.03	1724.39
407.25	1601.51
407.46	1773.54
407.67	1773.54
407.88	1781.73
408.09	1753.06
408.31	1722.34
408.52	1665.00
408.73	1636.33
408.94	1679.33
409.15	1738.73
409.37	1703.91
409.58	1722.34
409.79	1703.91
410.00	1800.16
410.21	1722.34
410.43	1781.73
410.64	1685.48
410.85	1775.59
411.06	1718.25
411.27	1691.62
411.48	1800.16
411.70	1679.33
411.91	1705.96
412.12	1746.92
412.33	1775.59
412.54	1601.51
412.76	1787.88
412.97	1753.06
413.18	1652.71
413.39	1812.45
413.60	1785.83
413.81	1650.66
414.03	1667.05
414.24	1697.77
414.45	1814.50
414.66	1599.46
414.87	1673.19
415.08	1746.92
415.30	1728.49
415.51	1781.73
415.72	1691.62
415.93	1652.71
416.14	1708.01
416.35	1708.01
416.56	1744.87
416.78	1708.01
416.99	1671.14
417.20	1834.98
417.41	1771.49
417.62	1730.53
417.83	1781.73
418.04	1673.19
418.26	1730.53
418.47	1722.34
418.68	1673.19
418.89	1837.03
419.10	1832.93
419.31	1689.57
419.52	1738.73
419.73	1650.66
419.95	1785.83
420.16	1683.43
420.37	1632.23
420.58	1839.08
420.79	1689.57
421.00	1632.23
421.21	1691.62
421.42	1652.71
421.63	1675.24
421.85	1677.29
422.06	1667.05
422.27	1726.44
422.48	1728.49
422.69	1726.44
422.90	1660.90
423.11	1656.81
423.32	1703.91
423.53	1808.36
423.75	1730.53
423.96	1761.25
424.17	1843.17
424.38	1763.30
424.59	1636.33
424.80	1714.15
425.01	1693.67
425.22	1546.22
425.43	1765.35
425.64	1822.69
425.85	1802.21
426.06	1796.07
426.28	1660.90
426.49	1640.42
426.70	1613.80
426.91	1705.96
427.12	1708.01
427.33	1753.06
427.54	1652.71
427.75	1667.05
427.96	1755.11
428.17	1810.40
428.38	1697.77
428.59	1777.64
428.80	1730.53
429.01	1744.87
429.23	1648.61
429.44	1722.34
429.65	1748.97
429.86	1722.34
430.07	1591.27
430.28	1708.01
430.49	1757.16
430.70	1761.25
430.91	1748.97
431.12	1648.61
431.33	1716.20
431.54	1789.92
431.75	1773.54
431.96	1689.57
432.17	1677.29
432.38	1742.82
432.59	1804.26
432.80	1828.84
433.01	1697.77
433.22	1648.61
433.43	1759.21
433.64	1734.63
433.85	1691.62
434.06	1703.91
434.27	1630.18
434.49	1609.70
434.70	1748.97
434.91	1662.95
435.12	1687.53
435.33	1665.00
435.54	1634.28
435.75	1599.46
435.96	1613.80
436.17	1742.82
436.38	1730.53
436.59	1640.42
436.80	1619.94
437.01	1773.54
437.22	1753.06
437.43	1695.72
437.64	1621.99
437.85	1740.77
438.06	1763.30
438.27	1779.68
438.48	1675.24
438.69	1720.29
438.90	1669.09
439.11	1665.00
439.32	1763.30
439.53	1634.28
439.74	1675.24
439.95	1691.62
440.16	1675.24
440.37	1687.53
440.57	1679.33
440.78	1806.31
440.99	1650.66
441.20	1712.10
441.41	1665.00
441.62	1626.09
441.83	1714.15
442.04	1652.71
442.25	1667.05
442.46	1662.95
442.67	1654.76
442.88	1812.45
443.09	1683.43
443.30	1601.51
443.51	1646.57
443.72	1695.72
443.93	1662.95
444.14	1755.11
444.35	1648.61
444.56	1691.62
444.77	1708.01
444.98	1763.30
445.19	1763.30
445.40	1738.73
445.61	1652.71
445.81	1681.38
446.02	1783.78
446.23	1675.24
446.44	1665.00
446.65	1697.77
446.86	1695.72
447.07	1865.70
447.28	1621.99
447.49	1738.73
447.70	1652.71
447.91	1806.31
448.12	1671.14
448.33	1734.63
448.54	1654.76
448.74	1685.48
448.95	1669.09
449.16	1837.03
449.37	1744.87
449.58	1710.05
449.79	1773.54
450.00	1685.48
450.21	1648.61
450.42	1691.62
450.63	1705.96
450.84	1716.20
451.05	1644.52
451.25	1693.67
451.46	1646.57
451.67	1832.93
451.88	1705.96
452.09	1638.38
452.30	1621.99
452.51	1654.76
452.72	1736.68
452.93	1810.40
453.13	1753.06
453.34	1646.57
453.55	1679.33
453.76	1656.81
453.97	1726.44
454.18	1591.27
454.39	1761.25
454.60	1689.57
454.81	1744.87
455.01	1667.05
455.22	1607.66
455.43	1628.14
455.64	1724.39
455.85	1683.43
456.06	1728.49
456.27	1716.20
456.48	1748.97
456.68	1783.78
456.89	1779.68
457.10	1636.33
457.31	1712.10
457.52	1759.21
457.73	1710.05
457.94	1699.81
458.14	1619.94
458.35	1734.63
458.56	1728.49
458.77	1732.58
458.98	1660.90
459.19	1714.15
459.39	1732.58
459.60	1665.00
459.81	1740.77
460.02	1640.42
460.23	1726.44
460.44	1689.57
460.65	1734.63
460.85	1761.25
461.06	1628.14
461.27	1732.58
461.48	1681.38
461.69	1753.06
461.89	1671.14
462.10	1687.53
462.31	1585.13
462.52	1570.79
462.73	1648.61
462.94	1654.76
463.14	1658.85
463.35	1654.76
463.56	1761.25
463.77	1730.53
463.98	1605.61
464.18	1628.14
464.39	1779.68
464.60	1673.19
464.81	1656.81
465.02	1708.01
465.23	1722.34
465.43	1738.73
465.64	1607.66
465.85	1621.99
466.06	1689.57
466.27	1675.24
466.47	1679.33
466.68	1701.86
466.89	1630.18
467.10	1562.60
467.30	1642.47
467.51	1662.95
467.72	1757.16
467.93	1535.98
468.14	1693.67
468.34	1783.78
468.55	1724.39
468.76	1769.44
468.97	1712.10
469.17	1730.53
469.38	1820.64
469.59	1804.26
469.80	1695.72
470.01	1701.86
470.21	1570.79
470.42	1656.81
470.63	1699.81
470.84	1830.88
471.04	1714.15
471.25	1808.36
471.46	1761.25
471.67	1726.44
471.87	1683.43
472.08	1679.33
472.29	1611.75
472.50	1773.54
472.70	1691.62
472.91	1568.74
473.12	1624.04
473.33	1628.14
473.53	1708.01
473.74	1587.18
473.95	1667.05
474.16	1703.91
474.36	1630.18
474.57	1742.82
474.78	1712.10
474.99	1746.92
475.19	1687.53
475.40	1693.67
475.61	1757.16
475.81	1712.10
476.02	1687.53
476.23	1716.20
476.44	1632.23
476.64	1744.87
476.85	1705.96
477.06	1679.33
477.27	1654.76
477.47	1736.68
477.68	1665.00
477.89	1667.05
478.09	1746.92
478.30	1662.95
478.51	1689.57
478.71	1591.27
478.92	1630.18
479.13	1683.43
479.34	1570.79
479.54	1703.91
479.75	1740.77
479.96	1722.34
480.16	1662.95
480.37	1656.81
480.58	1724.39
480.78	1794.02
480.99	1683.43
481.20	1740.77
481.41	1726.44
481.61	1742.82
481.82	1785.83
482.03	1652.71
482.23	1646.57
482.44	1789.92
482.65	1937.38
482.85	1681.38
483.06	1621.99
483.27	1787.88
483.47	1714.15
483.68	1705.96
483.89	1710.05
484.09	1748.97
484.30	1710.05
484.51	1814.50
484.71	1646.57
484.92	1705.96
485.13	1667.05
485.33	1697.77
485.54	1609.70
485.75	1681.38
485.95	1746.92
486.16	1695.72
486.37	1705.96
486.57	1617.90
486.78	1710.05
486.98	1740.77
487.19	1716.20
487.40	1755.11
487.60	1665.00
487.81	1724.39
488.02	1589.22
488.22	1671.14
488.43	1769.44
488.64	1714.15
488.84	1726.44
489.05	1724.39
489.25	1683.43
489.46	1701.86
489.67	1691.62
489.87	1714.15
490.08	1742.82
490.29	1599.46
490.49	1787.88
490.70	1757.16
490.90	1695.72
491.11	1691.62
491.32	1648.61
491.52	1705.96
491.73	1691.62
491.94	1675.24
492.14	1613.80
492.35	1716.20
492.55	1748.97
492.76	1621.99
492.97	1581.03
493.17	1703.91
493.38	1701.86
493.58	1808.36
493.79	1714.15
494.00	1630.18
494.20	1642.47
494.41	1748.97
494.61	1685.48
494.82	1683.43
495.02	1642.47
495.23	1724.39
495.44	1691.62
495.64	1789.92
495.85	1681.38
496.05	1751.01
496.26	1773.54
496.47	1796.07
496.67	1677.29
496.88	1816.55
497.08	1675.24
497.29	1703.91
497.49	1736.68
497.70	1732.58
497.91	1626.09
498.11	1806.31
498.32	1708.01
498.52	1773.54
498.73	1728.49
498.93	1732.58
499.14	1757.16
499.34	1701.86
499.55	1751.01
499.76	1634.28
499.96	1718.25
500.17	1730.53
500.37	1728.49
500.58	1695.72
500.78	1654.76
500.99	1691.62
501.19	1662.95
501.40	1761.25
501.60	1619.94
501.81	1607.66
502.02	1726.44
502.22	1703.91
502.43	1687.53
502.63	1869.80
502.84	1791.97
503.04	1681.38
503.25	1654.76
503.45	1751.01
503.66	1714.15
503.86	1810.40
504.07	1736.68
504.27	1644.52
504.48	1660.90
504.68	1685.48
504.89	1855.46
505.09	1673.19
505.30	1726.44
505.50	1728.49
505.71	1685.48
505.91	1695.72
506.12	1705.96
506.32	1679.33
506.53	1638.38
506.73	1710.05
506.94	1691.62
507.14	1718.25
507.35	1691.62
507.55	1781.73
507.76	1701.86
507.96	1660.90
508.17	1761.25
508.37	1650.66
508.58	1728.49
508.78	1710.05
508.99	1822.69
509.19	1822.69
509.40	1638.38
509.60	1654.76
509.81	1751.01
510.01	1734.63
510.22	1773.54
510.42	1761.25
510.63	1837.03
510.83	1699.81
511.04	1691.62
511.24	1785.83
511.44	1632.23
511.65	1646.57
511.85	1716.20
512.06	1716.20
512.26	1732.58
512.47	1716.20
512.67	1630.18
512.88	1746.92
513.08	1669.09
513.29	1742.82
513.49	1646.57
513.69	1673.19
513.90	1667.05
514.10	1697.77
514.31	1728.49
514.51	1675.24
514.72	1648.61
514.92	1738.73
515.13	1617.90
515.33	1703.91
515.53	1665.00
515.74	1757.16
515.94	1763.30
516.15	1812.45
516.35	1673.19
516.56	1673.19
516.76	1601.51
516.96	1585.13
517.17	1732.58
517.37	1753.06
517.58	1652.71
517.78	1683.43
517.99	1720.29
518.19	1767.40
518.39	1777.64
518.60	1773.54
518.80	1679.33
519.01	1769.44
519.21	1660.90
519.41	1710.05
519.62	1644.52
519.82	1738.73
520.03	1677.29
520.23	1630.18
520.43	1609.70
520.64	1785.83
520.84	1781.73
521.05	1652.71
521.25	1751.01
521.45	1767.40
521.66	1681.38
521.86	1759.21
522.07	1712.10
522.27	1757.16
522.47	1615.85
522.68	1650.66
522.88	1699.81
523.08	1732.58
523.29	1646.57
523.49	1689.57
523.70	1619.94
523.90	1677.29
524.10	1789.92
524.31	1687.53
524.51	1513.45
524.71	1789.92
524.92	1683.43
525.12	1611.75
525.33	1728.49
525.53	1652.71
525.73	1744.87
525.94	1667.05
526.14	1699.81
526.34	1638.38
526.55	1716.20
526.75	1679.33
526.95	1806.31
527.16	1652.71
527.36	1710.05
527.56	1740.77
527.77	1669.09
527.97	1775.59
528.17	1740.77
528.38	1677.29
528.58	1654.76
528.78	1673.19
528.99	1675.24
529.19	1724.39
529.39	1628.14
529.60	1626.09
529.80	1667.05
530.00	1679.33
530.21	1748.97
530.41	1634.28
530.61	1722.34
530.82	1705.96
531.02	1662.95
531.22	1679.33
531.43	1640.42
531.63	1675.24
531.83	1761.25
532.04	1736.68
532.24	1640.42
532.44	1642.47
532.64	1816.55
532.85	1720.29
533.05	1611.75
533.25	1638.38
533.46	1689.57
533.66	1753.06
533.86	1665.00
534.07	1691.62
534.27	1632.23
534.47	1767.40
534.67	1685.48
534.88	1703.91
535.08	1757.16
535.28	1712.10
535.49	1626.09
535.69	1798.12
535.89	1732.58
536.09	1785.83
536.30	1765.35
536.50	1626.09
536.70	1781.73
536.91	1667.05
537.11	1798.12
537.31	1712.10
537.51	1673.19
537.72	1673.19
537.92	1722.34
538.12	1681.38
538.32	1748.97
538.53	1621.99
538.73	1642.47
538.93	1757.16
539.13	1667.05
539.34	1777.64
539.54	1699.81
539.74	1775.59
539.94	1695.72
540.15	1785.83
540.35	1681.38
540.55	1675.24
540.75	1642.47
540.96	1665.00
541.16	1712.10
541.36	1779.68
541.56	1652.71
541.77	1800.16
541.97	1779.68
542.17	1621.99
542.37	1804.26
542.58	1722.34
542.78	1789.92
542.98	1726.44
543.18	1722.34
543.38	1722.34
543.59	1681.38
543.79	1679.33
543.99	1617.90
544.19	1695.72
544.40	1787.88
544.60	1705.96
544.80	1679.33
545.00	1613.80
545.20	1777.64
545.41	1697.77
545.61	1591.27
545.81	1734.63
546.01	1714.15
546.21	1658.85
546.42	1779.68
546.62	1771.49
546.82	1638.38
547.02	1591.27
547.22	1736.68
547.43	1767.40
547.63	1753.06
547.83	1701.86
548.03	1654.76
548.23	1759.21
548.44	1691.62
548.64	1662.95
548.84	1736.68
549.04	1613.80
549.24	1900.52
549.45	1806.31
549.65	1603.56
549.85	1740.77
550.05	1683.43
550.25	1626.09
550.45	1775.59
550.66	1755.11
550.86	1613.80
551.06	1718.25
551.26	1658.85
551.46	1689.57
551.66	1722.34
551.87	1693.67
552.07	1619.94
552.27	1726.44
552.47	1812.45
552.67	1665.00
552.87	1716.20
553.07	1673.19
553.28	1734.63
553.48	1757.16
553.68	1675.24
553.88	1798.12
554.08	1665.00
554.28	1656.81
554.48	1658.85
554.69	1677.29
554.89	1761.25
555.09	1673.19
555.29	1658.85
555.49	1662.95
555.69	1697.77
555.89	1658.85
556.10	1748.97
556.30	1683.43
556.50	1765.35
556.70	1701.86
556.90	1712.10
557.10	1775.59
557.30	1687.53
557.50	1667.05
557.70	1689.57
557.91	1583.08
558.11	1699.81
558.31	1804.26
558.51	1687.53
558.71	1802.21
558.91	1714.15
559.11	1662.95
559.31	1587.18
559.51	1759.21
559.72	1716.20
559.92	1634.28
560.12	1687.53
560.32	1761.25
560.52	1769.44
560.72	1744.87
560.92	1845.22
561.12	1742.82
561.32	1695.72
561.52	1638.38
561.72	1918.95
561.93	1736.68
562.13	1683.43
562.33	1646.57
562.53	1777.64
562.73	1691.62
562.93	1681.38
563.13	1810.40
563.33	1785.83
563.53	1757.16
563.73	1736.68
563.93	1818.60
564.13	1824.74
564.33	1736.68
564.53	1728.49
564.74	1691.62
564.94	1720.29
565.14	1736.68
565.34	1769.44
565.54	1724.39
565.74	1652.71
565.94	1679.33
566.14	1728.49
566.34	1757.16
566.54	1796.07
566.74	1781.73
566.94	1697.77
567.14	1665.00
567.34	1734.63
567.54	1710.05
567.74	1742.82
567.94	1714.15
568.14	1671.14
568.34	1808.36
568.54	1628.14
568.74	1675.24
568.94	1728.49
569.14	1781.73
569.34	1744.87
569.54	1697.77
569.75	1652.71
569.95	1685.48
570.15	1738.73
570.35	1736.68
570.55	1603.56
570.75	1708.01
570.95	1705.96
571.15	1693.67
571.35	1699.81
571.55	1716.20
571.75	1683.43
571.95	1681.38
572.15	1695.72
572.35	1726.44
572.55	1667.05
572.75	1667.05
572.95	1599.46
573.15	1751.01
573.35	1775.59
573.55	1738.73
573.75	1736.68
573.95	1869.80
574.15	1771.49
574.35	1716.20
574.55	1681.38
574.75	1689.57
574.95	1703.91
575.15	1697.77
575.34	1638.38
575.54	1603.56
575.74	1669.09
575.94	1712.10
576.14	1613.80
576.34	1730.53
576.54	1632.23
576.74	1718.25
576.94	1599.46
577.14	1744.87
577.34	1757.16
577.54	1660.90
577.74	1691.62
577.94	1695.72
578.14	1607.66
578.34	1783.78
578.54	1621.99
578.74	1726.44
578.94	1677.29
579.14	1689.57
579.34	1689.57
579.54	1703.91
579.74	1736.68
579.94	1650.66
580.13	1726.44
580.33	1638.38
580.53	1710.05
580.73	1626.09
580.93	1753.06
581.13	1689.57
581.33	1636.33
581.53	1763.30
581.73	1665.00
581.93	1671.14
582.13	1742.82
582.33	1765.35
582.53	1597.42
582.73	1748.97
582.92	1687.53
583.12	1722.34
583.32	1597.42
583.52	1734.63
583.72	1814.50
583.92	1712.10
584.12	1728.49
584.32	1705.96
584.52	1626.09
584.72	1605.61
584.92	1667.05
585.11	1716.20
585.31	1732.58
585.51	1648.61
585.71	1714.15
585.91	1834.98
586.11	1669.09
586.31	1720.29
586.51	1667.05
586.71	1761.25
586.91	1654.76
587.10	1765.35
587.30	1841.12
587.50	1683.43
587.70	1646.57
587.90	1724.39
588.10	1740.77
588.30	1714.15
588.50	1683.43
588.69	1710.05
588.89	1771.49
589.09	1830.88
589.29	1630.18
589.49	1658.85
589.69	1576.94
589.89	1746.92
590.08	1691.62
590.28	1753.06
590.48	1705.96
590.68	1761.25
590.88	1683.43
591.08	1687.53
591.28	1687.53
591.47	1720.29
591.67	1603.56
591.87	1683.43
592.07	1798.12
592.27	1669.09
592.47	1728.49
592.67	1755.11
592.86	1703.91
593.06	1703.91
593.26	1763.30
593.46	1703.91
593.66	1609.70
593.86	1773.54
594.05	1814.50
594.25	1736.68
594.45	1705.96
594.65	1910.75
594.85	1787.88
595.05	1693.67
595.24	1712.10
595.44	1703.91
595.64	1634.28
595.84	1746.92
596.04	1744.87
596.23	1734.63
596.43	1755.11
596.63	1644.52
596.83	1699.81
597.03	1843.17
597.22	1716.20
597.42	1791.97
597.62	1710.05
597.82	1820.64
598.02	1732.58
598.21	1601.51
598.41	1724.39
598.61	1726.44
598.81	1710.05
599.01	1685.48
599.20	1650.66
599.40	1722.34
599.60	1755.11
599.80	1687.53
600.00	1810.40
600.19	1712.10
600.39	1642.47
600.59	1738.73
600.79	1798.12
600.98	1673.19
601.18	1763.30
601.38	1738.73
601.58	1728.49
601.78	1742.82
601.97	1781.73
602.17	1671.14
602.37	1722.34
602.57	1691.62
602.76	1781.73
602.96	1597.42
603.16	1619.94
603.36	1775.59
603.55	1794.02
603.75	1708.01
603.95	1765.35
604.15	1751.01
604.34	1746.92
604.54	1679.33
604.74	1802.21
604.94	1703.91
605.13	1683.43
605.33	1611.75
605.53	1632.23
605.73	1802.21
605.92	1748.97
606.12	1693.67
606.32	1726.44
606.52	1837.03
606.71	1804.26
606.91	1660.90
607.11	1662.95
607.30	1724.39
607.50	1640.42
607.70	1920.99
607.90	1734.63
608.09	1740.77
608.29	1763.30
608.49	1773.54
608.68	1720.29
608.88	1656.81
609.08	1615.85
609.28	1767.40
609.47	1751.01
609.67	1753.06
609.87	1701.86
610.06	1718.25
610.26	1699.81
610.46	1839.08
610.66	1681.38
610.85	1699.81
611.05	1781.73
611.25	1738.73
611.44	1697.77
611.64	1626.09
611.84	1701.86
612.03	1712.10
612.23	1566.70
612.43	1732.58
612.62	1757.16
612.82	1769.44
613.02	1718.25
613.21	1705.96
613.41	1763.30
613.61	1697.77
613.80	1652.71
614.00	1718.25
614.20	1773.54
614.39	1763.30
614.59	1763.30
614.79	1681.38
614.98	1734.63
615.18	1697.77
615.38	1718.25
615.57	1720.29
615.77	1873.89
615.97	1687.53
616.16	1699.81
616.36	1710.05
616.56	1736.68
616.75	1624.04
616.95	1638.38
617.15	1777.64
617.34	1634.28
617.54	1791.97
617.74	1920.99
617.93	1859.56
618.13	1679.33
618.32	1779.68
618.52	1720.29
618.72	1658.85
618.91	1734.63
619.11	1822.69
619.31	1722.34
619.50	1683.43
619.70	1648.61
619.90	1748.97
620.09	1822.69
620.29	1626.09
620.48	1755.11
620.68	1734.63
620.88	1681.38
621.07	1722.34
621.27	1761.25
621.46	1742.82
621.66	1802.21
621.86	1718.25
622.05	1697.77
622.25	1820.64
622.44	1734.63
622.64	1705.96
622.84	1732.58
623.03	1632.23
623.23	1673.19
623.42	1746.92
623.62	1693.67
623.82	1787.88
624.01	1734.63
624.21	1744.87
624.40	1855.46
624.60	1691.62
624.80	1646.57
624.99	1695.72
625.19	1728.49
625.38	1748.97
625.58	1757.16
625.77	1679.33
625.97	1767.40
626.17	1736.68
626.36	1695.72
626.56	1695.72
626.75	1642.47
626.95	1767.40
627.14	1691.62
627.34	1638.38
627.54	1757.16
627.73	1808.36
627.93	1777.64
628.12	1693.67
628.32	1748.97
628.51	1615.85
628.71	1802.21
628.90	1806.31
629.10	1650.66
629.30	1710.05
629.49	1755.11
629.69	1738.73
629.88	1654.76
630.08	1847.27
630.27	1865.70
630.47	1728.49
630.66	1687.53
630.86	1732.58
631.05	1734.63
631.25	1650.66
631.44	1826.79
631.64	1615.85
631.84	1650.66
632.03	1746.92
632.23	1755.11
632.42	1730.53
632.62	1613.80
632.81	1703.91
633.01	1699.81
633.20	1806.31
633.40	1871.84
633.59	1755.11
633.79	1714.15
633.98	1748.97
634.18	1740.77
634.37	1746.92
634.57	1712.10
634.76	1660.90
634.96	1773.54
635.15	1845.22
635.35	1753.06
635.54	1673.19
635.74	1687.53
635.93	1687.53
636.13	1724.39
636.32	1767.40
636.52	1689.57
636.71	1744.87
636.91	1800.16
637.10	1734.63
637.30	1640.42
637.49	1691.62
637.69	1730.53
637.88	1695.72
638.08	1738.73
638.27	1683.43
638.46	1812.45
638.66	1736.68
638.85	1603.56
639.05	1726.44
639.24	1763.30
639.44	1726.44
639.63	1712.10
639.83	1722.34
640.02	1724.39
640.22	1708.01
640.41	1662.95
640.61	1738.73
640.80	1753.06
640.99	1701.86
641.19	1839.08
641.38	1755.11
641.58	1712.10
641.77	1634.28
641.97	1648.61
642.16	1744.87
642.36	1779.68
642.55	1730.53
642.74	1691.62
642.94	1732.58
643.13	1693.67
643.33	1775.59
643.52	1755.11
643.72	1761.25
643.91	1724.39
644.10	1761.25
644.30	1683.43
644.49	1824.74
644.69	1746.92
644.88	1695.72
645.08	1794.02
645.27	1751.01
645.46	1630.18
645.66	1656.81
645.85	1775.59
646.05	1671.14
646.24	1683.43
646.43	1763.30
646.63	1728.49
646.82	1662.95
647.02	1748.97
647.21	1789.92
647.40	1621.99
647.60	1658.85
647.79	1761.25
647.99	1667.05
648.18	1630.18
648.37	1818.60
648.57	1734.63
648.76	1665.00
648.96	1718.25
649.15	1677.29
649.34	1775.59
649.54	1716.20
649.73	1636.33
649.92	1726.44
650.12	1699.81
650.31	1720.29
650.51	1937.38
650.70	1714.15
650.89	1601.51
651.09	1806.31
651.28	1726.44
651.47	1619.94
651.67	1687.53
651.86	1767.40
652.06	1648.61
652.25	1722.34
652.44	1605.61
652.64	1822.69
652.83	1724.39
653.02	1734.63
653.22	1757.16
653.41	1630.18
653.60	1712.10
653.80	1665.00
653.99	1757.16
654.18	1642.47
654.38	1669.09
654.57	1757.16
654.76	1636.33
654.96	1626.09
655.15	1656.81
655.34	1714.15
655.54	1638.38
655.73	1677.29
655.92	1638.38
656.12	1714.15
656.31	1761.25
656.50	1771.49
656.70	1648.61
656.89	1619.94
657.08	1640.42
657.28	1732.58
657.47	1716.20
657.66	1728.49
657.86	1722.34
658.05	1677.29
658.24	1738.73
658.43	1802.21
658.63	1699.81
658.82	1800.16
659.01	1818.60
659.21	1779.68
659.40	1660.90
659.59	1732.58
659.79	1566.70
659.98	1796.07
660.17	1703.91
660.36	1781.73
660.56	1767.40
660.75	1761.25
660.94	1712.10
661.14	1705.96
661.33	1632.23
661.52	1705.96
661.71	1687.53
661.91	1712.10
662.10	1738.73
662.29	1646.57
662.49	1662.95
662.68	1638.38
662.87	1677.29
663.06	1773.54
663.26	1662.95
663.45	1777.64
663.64	1744.87
663.83	1765.35
664.03	1796.07
664.22	1699.81
664.41	1849.32
664.60	1826.79
664.80	1691.62
664.99	1763.30
665.18	1722.34
665.37	1705.96
665.57	1757.16
665.76	1796.07
665.95	1714.15
666.14	1648.61
666.34	1607.66
666.53	1757.16
666.72	1636.33
666.91	1720.29
667.11	1757.16
667.30	1798.12
667.49	1701.86
667.68	1810.40
667.87	1753.06
668.07	1814.50
668.26	1662.95
668.45	1656.81
668.64	1642.47
668.84	1785.83
669.03	1646.57
669.22	1855.46
669.41	1763.30
669.60	1673.19
669.80	1771.49
669.99	1667.05
670.18	1648.61
670.37	1755.11
670.57	1724.39
670.76	1730.53
670.95	1816.55
671.14	1634.28
671.33	1675.24
671.53	1716.20
671.72	1757.16
671.91	1775.59
672.10	1724.39
672.29	1769.44
672.48	1748.97
672.68	1695.72
672.87	1656.81
673.06	1761.25
673.25	1716.20
673.44	1644.52
673.64	1650.66
673.83	1751.01
674.02	1816.55
674.21	1751.01
674.40	1724.39
674.59	1730.53
674.79	1638.38
674.98	1781.73
675.17	1732.58
675.36	1576.94
675.55	1636.33
675.74	1662.95
675.94	1730.53
676.13	1755.11
676.32	1716.20
676.51	1650.66
676.70	1644.52
676.89	1771.49
677.08	1701.86
677.28	1890.28
677.47	1683.43
677.66	1677.29
677.85	1665.00
678.04	1781.73
678.23	1798.12
678.42	1724.39
678.62	1691.62
678.81	1794.02
679.00	1665.00
679.19	1859.56
679.38	1724.39
679.57	1720.29
679.76	1730.53
679.96	1710.05
680.15	1753.06
680.34	1722.34
680.53	1736.68
680.72	1814.50
680.91	1705.96
681.10	1724.39
681.29	1705.96
681.48	1740.77
681.68	1740.77
681.87	1775.59
682.06	1728.49
682.25	1814.50
682.44	1621.99
682.63	1765.35
682.82	1570.79
683.01	1720.29
683.20	1701.86
683.39	1865.70
683.59	1751.01
683.78	1687.53
683.97	1642.47
684.16	1603.56
684.35	1650.66
684.54	1720.29
684.73	1677.29
684.92	1578.98
685.11	1738.73
685.30	1748.97
685.49	1718.25
685.69	1742.82
685.88	1679.33
686.07	1628.14
686.26	1654.76
686.45	1669.09
686.64	1726.44
686.83	1683.43
687.02	1798.12
687.21	1828.84
687.40	1720.29
687.59	1814.50
687.78	1738.73
687.97	1806.31
688.16	1724.39
688.35	1662.95
688.54	1667.05
688.74	1624.04
688.93	1693.67
689.12	1714.15
689.31	1818.60
689.50	1716.20
689.69	1681.38
689.88	1740.77
690.07	1720.29
690.26	1673.19
690.45	1720.29
690.64	1691.62
690.83	1687.53
691.02	1675.24
691.21	1718.25
691.40	1675.24
691.59	1767.40
691.78	1755.11
691.97	1714.15
692.16	1632.23
692.35	1765.35
692.54	1796.07
692.73	1677.29
692.92	1765.35
693.11	1687.53
693.30	1701.86
693.49	1646.57
693.68	1755.11
693.87	1732.58
694.06	1726.44
694.25	1718.25
694.44	1720.29
694.63	1642.47
694.82	1593.32
695.01	1775.59
695.20	1626.09
695.39	1679.33
695.58	1697.77
695.77	1599.46
695.96	1755.11
696.15	1671.14
696.34	1681.38
696.53	1720.29
696.72	1648.61
696.91	1662.95
697.10	1710.05
697.29	1656.81
697.48	1810.40
697.67	1748.97
697.86	1687.53
698.05	1771.49
698.24	1716.20
698.43	1716.20
698.62	1677.29
698.81	1665.00
699.00	1714.15
699.19	1734.63
699.38	1689.57
699.57	1634.28
699.76	1769.44
699.95	1615.85
700.14	1785.83
700.32	1718.25
700.51	1675.24
700.70	1667.05
700.89	1767.40
701.08	1789.92
701.27	1689.57
701.46	1820.64
701.65	1730.53
701.84	1693.67
702.03	1662.95
702.22	1837.03
702.41	1730.53
702.60	1671.14
702.79	1771.49
702.98	1693.67
703.17	1787.88
703.35	1732.58
703.54	1744.87
703.73	1738.73
703.92	1667.05
704.11	1621.99
704.30	1681.38
704.49	1767.40
704.68	1621.99
704.87	1710.05
705.06	1744.87
705.25	1615.85
705.43	1679.33
705.62	1695.72
705.81	1814.50
706.00	1687.53
706.19	1720.29
706.38	1605.61
706.57	1746.92
706.76	1609.70
706.95	1738.73
707.14	1761.25
707.32	1617.90
707.51	1673.19
707.70	1656.81
707.89	1720.29
708.08	1685.48
708.27	1714.15
708.46	1746.92
708.65	1591.27
708.84	1736.68
709.02	1654.76
709.21	1665.00
709.40	1763.30
709.59	1683.43
709.78	1751.01
709.97	1667.05
710.16	1744.87
710.34	1736.68
710.53	1759.21
710.72	1642.47
710.91	1785.83
711.10	1650.66
711.29	1628.14
711.48	1689.57
711.66	1667.05
711.85	1687.53
712.04	1773.54
712.23	1701.86
712.42	1742.82
712.61	1789.92
712.80	1611.75
712.98	1708.01
713.17	1648.61
713.36	1699.81
713.55	1789.92
713.74	1738.73
713.93	1724.39
714.11	1718.25
714.30	1589.22
714.49	1796.07
714.68	1687.53
714.87	1566.70
715.06	1781.73
715.24	1789.92
715.43	1730.53
715.62	1574.89
715.81	1648.61
716.00	1693.67
716.18	1683.43
716.37	1716.20
716.56	1687.53
716.75	1691.62
716.94	1667.05
717.12	1751.01
717.31	1699.81
717.50	1671.14
717.69	1689.57
717.88	1687.53
718.06	1652.71
718.25	1722.34
718.44	1589.22
718.63	1738.73
718.82	1671.14
719.00	1667.05
719.19	1830.88
719.38	1646.57
719.57	1720.29
719.76	1777.64
719.94	1687.53
720.13	1716.20
720.32	1798.12
720.51	1652.71
720.69	1726.44
720.88	1787.88
721.07	1714.15
721.26	1841.12
721.44	1685.48
721.63	1732.58
721.82	1675.24
722.01	1724.39
722.20	1753.06
722.38	1724.39
722.57	1673.19
722.76	1689.57
722.95	1673.19
723.13	1658.85
723.32	1734.63
723.51	1724.39
723.70	1808.36
723.88	1781.73
724.07	1630.18
724.26	1775.59
724.44	1687.53
724.63	1857.51
724.82	1712.10
725.01	1679.33
725.19	1650.66
725.38	1757.16
725.57	1617.90
725.76	1755.11
725.94	1630.18
726.13	1732.58
726.32	1703.91
726.51	1624.04
726.69	1667.05
726.88	1667.05
727.07	1755.11
727.25	1654.76
727.44	1679.33
727.63	1662.95
727.82	1693.67
728.00	1646.57
728.19	1765.35
728.38	1677.29
728.56	1593.32
728.75	1769.44
728.94	1746.92
729.12	1755.11
729.31	1736.68
729.50	1675.24
729.69	1724.39
729.87	1601.51
730.06	1740.77
730.25	1755.11
730.43	1732.58
730.62	1701.86
730.81	1726.44
730.99	1763.30
731.18	1667.05
731.37	1656.81
731.55	1654.76
731.74	1724.39
731.93	1736.68
732.11	1753.06
732.30	1665.00
732.49	1697.77
732.67	1648.61
732.86	1722.34
733.05	1568.74
733.23	1748.97
733.42	1679.33
733.61	1703.91
733.79	1740.77
733.98	1757.16
734.17	1617.90
734.35	1738.73
734.54	1742.82
734.73	1740.77
734.91	1621.99
735.10	1748.97
735.29	1755.11
735.47	1568.74
735.66	1617.90
735.84	1748.97
736.03	1699.81
736.22	1697.77
736.40	1726.44
736.59	1558.50
736.78	1640.42
736.96	1724.39
737.15	1726.44
737.33	1683.43
737.52	1650.66
737.71	1738.73
737.89	1687.53
738.08	1671.14
738.27	1736.68
738.45	1699.81
738.64	1701.86
738.82	1728.49
739.01	1695.72
739.20	1691.62
739.38	1687.53
739.57	1740.77
739.75	1753.06
739.94	1720.29
740.13	1652.71
740.31	1753.06
740.50	1667.05
740.68	1718.25
740.87	1748.97
741.06	1665.00
741.24	1755.11
741.43	1683.43
741.61	1640.42
741.80	1703.91
741.99	1744.87
742.17	1734.63
742.36	1675.24
742.54	1681.38
742.73	1781.73
742.91	1658.85
743.10	1673.19
743.29	1716.20
743.47	1712.10
743.66	1613.80
743.84	1701.86
744.03	1685.48
744.21	1677.29
744.40	1748.97
744.59	1751.01
744.77	1593.32
744.96	1798.12
745.14	1689.57
745.33	1701.86
745.51	1755.11
745.70	1642.47
745.88	1705.96
746.07	1658.85
746.26	1738.73
746.44	1705.96
746.63	1560.55
746.81	1662.95
747.00	1802.21
747.18	1667.05
747.37	1593.32
747.55	1722.34
747.74	1945.57
747.92	1714.15
748.11	1640.42
748.29	1636.33
748.48	1767.40
748.66	1640.42
748.85	1665.00
749.03	1658.85
749.22	1630.18
749.41	1662.95
749.59	1722.34
749.78	1687.53
749.96	1589.22
750.15	1648.61
750.33	1730.53
750.52	1634.28
750.70	1644.52
750.89	1687.53
751.07	1630.18
751.26	1681.38
751.44	1675.24
751.63	1708.01
751.81	1687.53
752.00	1642.47
752.18	1716.20
752.37	1712.10
752.55	1652.71
752.74	1611.75
752.92	1640.42
753.10	1687.53
753.29	1689.57
753.47	1624.04
753.66	1581.03
753.84	1634.28
754.03	1591.27
754.21	1712.10
754.40	1761.25
754.58	1818.60
754.77	1814.50
754.95	1697.77
755.14	1773.54
755.32	1662.95
755.51	1630.18
755.69	1705.96
755.88	1632.23
756.06	1638.38
756.24	1679.33
756.43	1687.53
756.61	1675.24
756.80	1546.22
756.98	1619.94
757.17	1742.82
757.35	1681.38
757.54	1759.21
757.72	1699.81
757.90	1687.53
758.09	1665.00
758.27	1626.09
758.46	1601.51
758.64	1736.68
758.83	1695.72
759.01	1818.60
759.19	1791.97
759.38	1654.76
759.56	1775.59
759.75	1716.20
759.93	1728.49
760.12	1605.61
760.30	1691.62
760.48	1732.58
760.67	1720.29
760.85	1628.14
761.04	1654.76
761.22	1705.96
761.40	1656.81
761.59	1703.91
761.77	1640.42
761.96	1769.44
762.14	1687.53
762.32	1798.12
762.51	1669.09
762.69	1722.34
762.88	1777.64
763.06	1540.07
763.24	1667.05
763.43	1556.46
763.61	1689.57
763.80	1714.15
763.98	1667.05
764.16	1640.42
764.35	1705.96
764.53	1714.15
764.72	1638.38
764.90	1720.29
765.08	1673.19
765.27	1763.30
765.45	1658.85
765.63	1665.00
765.82	1757.16
766.00	1685.48
766.18	1691.62
766.37	1615.85
766.55	1708.01
766.74	1705.96
766.92	1638.38
767.10	1626.09
767.29	1798.12
767.47	1621.99
767.65	1611.75
767.84	1710.05
768.02	1744.87
768.20	1720.29
768.39	1681.38
768.57	1656.81
768.75	1720.29
768.94	1724.39
769.12	1542.12
769.30	1648.61
769.49	1685.48
769.67	1658.85
769.85	1814.50
770.04	1662.95
770.22	1630.18
770.40	1691.62
770.59	1640.42
770.77	1783.78
770.95	1732.58
771.14	1683.43
771.32	1621.99
771.50	1621.99
771.69	1595.37
771.87	1687.53
772.05	1695.72
772.24	1609.70
772.42	1683.43
772.60	1746.92
772.78	1683.43
772.97	1607.66
773.15	1759.21
773.33	1654.76
773.52	1617.90
773.70	1662.95
773.88	1689.57
774.07	1609.70
774.25	1673.19
774.43	1736.68
774.61	1693.67
774.80	1671.14
774.98	1703.91
775.16	1656.81
775.34	1576.94
775.53	1732.58
775.71	1744.87
775.89	1724.39
776.08	1615.85
776.26	1691.62
776.44	1634.28
776.62	1638.38
776.81	1665.00
776.99	1697.77
777.17	1667.05
777.35	1724.39
777.54	1621.99
777.72	1777.64
777.90	1611.75
778.08	1695.72
778.27	1710.05
778.45	1613.80
778.63	1624.04
778.81	1665.00
779.00	1603.56
779.18	1630.18
779.36	1681.38
779.54	1609.70
779.73	1640.42
779.91	1611.75
780.09	1722.34
780.27	1632.23
780.46	1693.67
780.64	1632.23
780.82	1630.18
781.00	1644.52
781.19	1576.94
781.37	1705.96
781.55	1779.68
781.73	1705.96
781.91	1632.23
782.10	1621.99
782.28	1804.26
782.46	1679.33
782.64	1710.05
782.82	1687.53
783.01	1742.82
783.19	1773.54
783.37	1724.39
783.55	1650.66
783.74	1632.23
783.92	1589.22
784.10	1691.62
784.28	1726.44
784.46	1658.85
784.64	1687.53
784.83	1703.91
785.01	1839.08
785.19	1771.49
785.37	1789.92
785.55	1695.72
785.74	1654.76
785.92	1630.18
786.10	1615.85
786.28	1863.65
786.46	1720.29
786.64	1658.85
786.83	1632.23
787.01	1800.16
787.19	1761.25
787.37	1716.20
787.55	1654.76
787.74	1691.62
787.92	1746.92
788.10	1679.33
788.28	1615.85
788.46	1634.28
788.64	1714.15
788.82	1771.49
789.01	1605.61
789.19	1687.53
789.37	1740.77
789.55	1642.47
789.73	1732.58
789.91	1738.73
790.09	1683.43
790.28	1699.81
790.46	1718.25
790.64	1738.73
790.82	1587.18
791.00	1710.05
791.18	1708.01
791.36	1757.16
791.55	1695.72
791.73	1708.01
791.91	1638.38
792.09	1654.76
792.27	1574.89
792.45	1683.43
792.63	1781.73
792.81	1671.14
793.00	1769.44
793.18	1693.67
793.36	1806.31
793.54	1710.05
793.72	1632.23
793.90	1611.75
794.08	1591.27
794.26	1718.25
794.44	1583.08
794.62	1665.00
794.81	1593.32
794.99	1724.39
795.17	1658.85
795.35	1628.14
795.53	1728.49
795.71	1742.82
795.89	1665.00
796.07	1667.05
796.25	1714.15
796.43	1777.64
796.61	1716.20
796.80	1599.46
796.98	1718.25
797.16	1665.00
797.34	1738.73
797.52	1626.09
797.70	1691.62
797.88	1685.48
798.06	1662.95
798.24	1746.92
798.42	1597.42
798.60	1697.77
798.78	1722.34
798.96	1716.20
799.14	1679.33
799.32	1775.59
799.51	1548.26
799.69	1703.91
799.87	1814.50
800.05	1691.62
800.23	1599.46
800.41	1720.29
800.59	1701.86
800.77	1634.28
800.95	1521.64
801.13	1763.30
801.31	1695.72
801.49	1841.12
801.67	1691.62
801.85	1667.05
802.03	1648.61
802.21	1708.01
802.39	1589.22
802.57	1634.28
802.75	1728.49
802.93	1718.25
803.11	1644.52
803.29	1748.97
803.47	1726.44
803.65	1615.85
803.83	1679.33
804.01	1681.38
804.19	1705.96
804.37	1626.09
804.55	1644.52
804.73	1660.90
804.91	1667.05
805.09	1691.62
805.27	1675.24
805.45	1548.26
805.63	1654.76
805.81	1753.06
805.99	1693.67
806.17	1658.85
806.35	1587.18
806.53	1685.48
806.71	1699.81
806.89	1646.57
807.07	1699.81
807.25	1656.81
807.43	1640.42
807.61	1808.36
807.79	1681.38
807.97	1632.23
808.15	1601.51
808.33	1738.73
808.51	1794.02
808.69	1624.04
808.87	1636.33
809.05	1642.47
809.23	1591.27
809.41	1665.00
809.59	1607.66
809.77	1775.59
809.95	1619.94
810.13	1773.54
810.31	1603.56
810.49	1804.26
810.67	1646.57
810.84	1638.38
811.02	1673.19
811.20	1593.32
811.38	1677.29
811.56	1597.42
811.74	1654.76
811.92	1630.18
812.10	1681.38
812.28	1740.77
812.46	1683.43
812.64	1693.67
812.82	1640.42
813.00	1640.42
813.18	1671.14
813.36	1683.43
813.53	1658.85
813.71	1810.40
813.89	1658.85
814.07	1646.57
814.25	1667.05
814.43	1617.90
814.61	1677.29
814.79	1695.72
814.97	1722.34
815.15	1648.61
815.33	1648.61
815.50	1665.00
815.68	1548.26
815.86	1689.57
816.04	1662.95
816.22	1650.66
816.40	1681.38
816.58	1650.66
816.76	1503.21
816.94	1665.00
817.11	1581.03
817.29	1685.48
817.47	1691.62
817.65	1673.19
817.83	1595.37
818.01	1662.95
818.19	1572.84
818.37	1667.05
818.54	1748.97
818.72	1650.66
818.90	1705.96
819.08	1667.05
819.26	1775.59
819.44	1802.21
819.62	1648.61
819.80	1638.38
819.97	1744.87
820.15	1683.43
820.33	1644.52
820.51	1628.14
820.69	1669.09
820.87	1724.39
821.05	1744.87
821.22	1542.12
821.40	1665.00
821.58	1701.86
821.76	1675.24
821.94	1662.95
822.12	1648.61
822.29	1660.90
822.47	1621.99
822.65	1718.25
822.83	1595.37
823.01	1656.81
823.19	1640.42
823.36	1562.60
823.54	1619.94
823.72	1638.38
823.90	1679.33
824.08	1531.88
824.25	1681.38
824.43	1740.77
824.61	1628.14
824.79	1611.75
824.97	1585.13
825.15	1712.10
825.32	1644.52
825.50	1722.34
825.68	1656.81
825.86	1734.63
826.04	1615.85
826.21	1740.77
826.39	1769.44
826.57	1624.04
826.75	1720.29
826.93	1724.39
827.10	1757.16
827.28	1648.61
827.46	1716.20
827.64	1667.05
827.81	1628.14
827.99	1687.53
828.17	1605.61
828.35	1644.52
828.53	1726.44
828.70	1652.71
828.88	1605.61
829.06	1673.19
829.24	1652.71
829.41	1693.67
829.59	1703.91
829.77	1603.56
829.95	1679.33
830.12	1656.81
830.30	1675.24
830.48	1689.57
830.66	1626.09
830.84	1630.18
831.01	1722.34
831.19	1578.98
831.37	1693.67
831.55	1667.05
831.72	1714.15
831.90	1714.15
832.08	1763.30
832.25	1699.81
832.43	1708.01
832.61	1724.39
832.79	1648.61
832.96	1619.94
833.14	1761.25
833.32	1761.25
833.50	1632.23
833.67	1699.81
833.85	1581.03
834.03	1605.61
834.20	1642.47
834.38	1671.14
834.56	1742.82
834.74	1560.55
834.91	1695.72
835.09	1718.25
835.27	1601.51
835.44	1798.12
835.62	1648.61
835.80	1658.85
835.98	1665.00
836.15	1683.43
836.33	1738.73
836.51	1574.89
836.68	1564.65
836.86	1599.46
837.04	1689.57
837.21	1744.87
837.39	1638.38
837.57	1693.67
837.75	1673.19
837.92	1671.14
838.10	1572.84
838.28	1671.14
838.45	1705.96
838.63	1607.66
838.81	1759.21
838.98	1648.61
839.16	1726.44
839.34	1693.67
839.51	1628.14
839.69	1617.90
839.87	1650.66
840.04	1732.58
840.22	1941.47
840.40	1636.33
840.57	1566.70
840.75	1601.51
840.93	1669.09
841.10	1624.04
841.28	1658.85
841.46	1673.19
841.63	1720.29
841.81	1583.08
841.98	1589.22
842.16	1681.38
842.34	1675.24
842.51	1603.56
842.69	1658.85
842.87	1681.38
843.04	1687.53
843.22	1603.56
843.40	1578.98
843.57	1632.23
843.75	1605.61
843.92	1675.24
844.10	1728.49
844.28	1630.18
844.45	1619.94
844.63	1679.33
844.81	1669.09
844.98	1783.78
845.16	1683.43
845.33	1611.75
845.51	1609.70
845.69	1681.38
845.86	1683.43
846.04	1675.24
846.21	1619.94
846.39	1591.27
846.57	1654.76
846.74	1626.09
846.92	1697.77
847.09	1667.05
847.27	1597.42
847.45	1591.27
847.62	1683.43
847.80	1667.05
847.97	1603.56
848.15	1615.85
848.32	1593.32
848.50	1665.00
848.68	1572.84
848.85	1662.95
849.03	1525.74
849.20	1601.51
849.38	1695.72
849.56	1681.38
849.73	1611.75
849.91	1759.21
850.08	1740.77
850.26	1581.03
850.43	1667.05
850.61	1699.81
850.78	1497.07
850.96	1726.44
851.14	1583.08
851.31	1755.11
851.49	1662.95
851.66	1716.20
851.84	1542.12
852.01	1683.43
852.19	1617.90
852.36	1632.23
852.54	1662.95
852.71	1619.94
852.89	1720.29
853.07	1640.42
853.24	1665.00
853.42	1679.33
853.59	1591.27
853.77	1656.81
853.94	1769.44
854.12	1695.72
854.29	1615.85
854.47	1570.79
854.64	1654.76
854.82	1705.96
854.99	1753.06
855.17	1650.66
855.34	1574.89
855.52	1619.94
855.69	1783.78
855.87	1640.42
856.04	1652.71
856.22	1654.76
856.39	1605.61
856.57	1638.38
856.74	1699.81
856.92	1683.43
857.09	1585.13
857.27	1646.57
857.44	1679.33
857.62	1697.77
857.79	1691.62
857.97	1761.25
858.14	1634.28
858.32	1679.33
858.49	1566.70
858.67	1695.72
858.84	1613.80
859.02	1710.05
859.19	1681.38
859.37	1486.83
859.54	1708.01
859.72	1654.76
859.89	1585.13
860.06	1593.32
860.24	1568.74
860.41	1761.25
860.59	1656.81
860.76	1687.53
860.94	1501.16
861.11	1632.23
861.29	1722.34
861.46	1638.38
861.64	1705.96
861.81	1720.29
861.98	1552.36
862.16	1638.38
862.33	1617.90
862.51	1595.37
862.68	1599.46
862.86	1648.61
863.03	1621.99
863.21	1679.33
863.38	1607.66
863.55	1669.09
863.73	1689.57
863.90	1652.71
864.08	1689.57
864.25	1617.90
864.43	1609.70
864.60	1585.13
864.77	1626.09
864.95	1683.43
865.12	1658.85
865.30	1722.34
865.47	1646.57
865.64	1679.33
865.82	1673.19
865.99	1724.39
866.17	1718.25
866.34	1689.57
866.51	1572.84
866.69	1576.94
866.86	1740.77
867.04	1796.07
867.21	1640.42
867.38	1619.94
867.56	1619.94
867.73	1654.76
867.91	1617.90
868.08	1605.61
868.25	1601.51
868.43	1708.01
868.60	1695.72
868.78	1558.50
868.95	1685.48
869.12	1671.14
869.30	1611.75
869.47	1689.57
869.64	1677.29
869.82	1601.51
869.99	1642.47
870.16	1640.42
870.34	1699.81
870.51	1699.81
870.69	1542.12
870.86	1685.48
871.03	1564.65
871.21	1628.14
871.38	1751.01
871.55	1716.20
871.73	1599.46
871.90	1607.66
872.07	1619.94
872.25	1505.26
872.42	1523.69
872.59	1593.32
872.77	1607.66
872.94	1640.42
873.11	1677.29
873.29	1716.20
873.46	1595.37
873.63	1665.00
873.81	1611.75
873.98	1712.10
874.15	1597.42
874.33	1697.77
874.50	1624.04
874.67	1667.05
874.85	1572.84
875.02	1560.55
875.19	1597.42
875.37	1654.76
875.54	1540.07
875.71	1675.24
875.88	1701.86
876.06	1634.28
876.23	1675.24
876.40	1650.66
876.58	1621.99
876.75	1658.85
876.92	1607.66
877.10	1669.09
877.27	1708.01
877.44	1708.01
877.61	1634.28
877.79	1699.81
877.96	1654.76
878.13	1560.55
878.31	1654.76
878.48	1658.85
878.65	1746.92
878.82	1636.33
879.00	1578.98
879.17	1613.80
879.34	1660.90
879.51	1626.09
879.69	1660.90
879.86	1574.89
880.03	1626.09
880.21	1595.37
880.38	1636.33
880.55	1687.53
880.72	1660.90
880.90	1626.09
881.07	1687.53
881.24	1761.25
881.41	1742.82
881.59	1640.42
881.76	1697.77
881.93	1705.96
882.10	1587.18
882.28	1603.56
882.45	1720.29
882.62	1687.53
882.79	1710.05
882.96	1527.78
883.14	1648.61
883.31	1671.14
883.48	1525.74
883.65	1675.24
883.83	1648.61
884.00	1605.61
884.17	1621.99
884.34	1675.24
884.51	1654.76
884.69	1757.16
884.86	1691.62
885.03	1724.39
885.20	1513.45
885.38	1654.76
885.55	1650.66
885.72	1626.09
885.89	1566.70
886.06	1746.92
886.24	1613.80
886.41	1564.65
886.58	1640.42
886.75	1691.62
886.92	1609.70
887.10	1611.75
887.27	1654.76
887.44	1789.92
887.61	1804.26
887.78	1730.53
887.95	1761.25
888.13	1611.75
888.30	1634.28
888.47	1605.61
888.64	1660.90
888.81	1621.99
888.99	1595.37
889.16	1599.46
889.33	1542.12
889.50	1673.19
889.67	1697.77
889.84	1619.94
890.01	1667.05
890.19	1662.95
890.36	1705.96
890.53	1609.70
890.70	1634.28
890.87	1658.85
891.04	1589.22
891.22	1675.24
891.39	1640.42
891.56	1699.81
891.73	1644.52
891.90	1595.37
892.07	1513.45
892.24	1708.01
892.42	1662.95
892.59	1568.74
892.76	1742.82
892.93	1601.51
893.10	1640.42
893.27	1679.33
893.44	1552.36
893.61	1656.81
893.79	1679.33
893.96	1679.33
894.13	1624.04
894.30	1644.52
894.47	1777.64
894.64	1699.81
894.81	1656.81
894.98	1624.04
895.15	1738.73
895.33	1673.19
895.50	1521.64
895.67	1558.50
895.84	1589.22
896.01	1601.51
896.18	1501.16
896.35	1677.29
896.52	1593.32
896.69	1619.94
896.86	1646.57
897.04	1658.85
897.21	1695.72
897.38	1632.23
897.55	1652.71
897.72	1644.52
897.89	1574.89
898.06	1728.49
898.23	1566.70
898.40	1658.85
898.57	1677.29
898.74	1644.52
898.91	1521.64
899.08	1667.05
899.26	1732.58
899.43	1734.63
899.60	1617.90
899.77	1665.00
899.94	1626.09
900.11	1689.57
900.28	1679.33
900.45	1593.32
900.62	1574.89
900.79	1597.42
900.96	1587.18
901.13	1685.48
901.30	1568.74
901.47	1597.42
901.64	1550.31
901.81	1617.90
901.98	1646.57
902.15	1691.62
902.32	1583.08
902.49	1671.14
902.66	1785.83
902.83	1630.18
903.01	1589.22
903.18	1630.18
903.35	1566.70
903.52	1626.09
903.69	1691.62
903.86	1671.14
904.03	1619.94
904.20	1687.53
904.37	1708.01
904.54	1615.85
904.71	1630.18
904.88	1634.28
905.05	1546.22
905.22	1689.57
905.39	1599.46
905.56	1578.98
905.73	1619.94
905.90	1599.46
906.07	1626.09
906.24	1714.15
906.41	1638.38
906.58	1773.54
906.75	1632.23
906.92	1523.69
907.09	1621.99
907.26	1640.42
907.43	1511.40
907.60	1652.71
907.77	1685.48
907.93	1720.29
908.10	1531.88
908.27	1789.92
908.44	1593.32
908.61	1648.61
908.78	1626.09
908.95	1671.14
909.12	1650.66
909.29	1472.49
909.46	1624.04
909.63	1742.82
909.80	1607.66
909.97	1695.72
910.14	1681.38
910.31	1601.51
910.48	1646.57
910.65	1560.55
910.82	1671.14
910.99	1654.76
911.16	1667.05
911.33	1658.85
911.50	1687.53
911.66	1617.90
911.83	1656.81
912.00	1646.57
912.17	1578.98
912.34	1583.08
912.51	1691.62
912.68	1660.90
912.85	1691.62
913.02	1714.15
913.19	1574.89
913.36	1619.94
913.53	1671.14
913.70	1669.09
913.86	1728.49
914.03	1685.48
914.20	1722.34
914.37	1671.14
914.54	1665.00
914.71	1703.91
914.88	1650.66
915.05	1628.14
915.22	1636.33
915.39	1638.38
915.55	1691.62
915.72	1568.74
915.89	1554.41
916.06	1632.23
916.23	1619.94
916.40	1683.43
916.57	1572.84
916.74	1673.19
916.91	1671.14
917.07	1552.36
917.24	1593.32
917.41	1699.81
917.58	1687.53
917.75	1656.81
917.92	1560.55
918.09	1611.75
918.26	1687.53
918.42	1648.61
918.59	1665.00
918.76	1609.70
918.93	1583.08
919.10	1558.50
919.27	1630.18
919.44	1765.35
919.60	1638.38
919.77	1595.37
919.94	1615.85
920.11	1667.05
920.28	1677.29
920.45	1632.23
920.61	1599.46
920.78	1658.85
920.95	1710.05
921.12	1644.52
921.29	1605.61
921.46	1669.09
921.62	1574.89
921.79	1624.04
921.96	1624.04
922.13	1708.01
922.30	1552.36
922.47	1630.18
922.63	1654.76
922.80	1619.94
922.97	1576.94
923.14	1466.35
923.31	1630.18
923.47	1613.80
923.64	1771.49
923.81	1656.81
923.98	1624.04
924.15	1603.56
924.32	1716.20
924.48	1675.24
924.65	1675.24
924.82	1550.31
924.99	1621.99
925.15	1562.60
925.32	1714.15
925.49	1650.66
925.66	1634.28
925.83	1607.66
925.99	1632.23
926.16	1726.44
926.33	1621.99
926.50	1550.31
926.67	1624.04
926.83	1669.09
927.00	1660.90
927.17	1708.01
927.34	1581.03
927.50	1624.04
927.67	1791.97
927.84	1654.76
928.01	1615.85
928.17	1628.14
928.34	1675.24
928.51	1603.56
928.68	1660.90
928.84	1621.99
929.01	1583.08
929.18	1607.66
929.35	1621.99
929.51	1624.04
929.68	1689.57
929.85	1677.29
930.02	1667.05
930.18	1705.96
930.35	1691.62
930.52	1589.22
930.69	1601.51
930.85	1708.01
931.02	1599.46
931.19	1630.18
931.36	1568.74
931.52	1689.57
931.69	1669.09
931.86	1693.67
932.02	1638.38
932.19	1701.86
932.36	1667.05
932.53	1650.66
932.69	1638.38
932.86	1728.49
933.03	1617.90
933.19	1531.88
933.36	1607.66
933.53	1718.25
933.70	1693.67
933.86	1701.86
934.03	1662.95
934.20	1562.60
934.36	1673.19
934.53	1591.27
934.70	1603.56
934.86	1572.84
935.03	1535.98
935.20	1609.70
935.36	1652.71
935.53	1544.17
935.70	1648.61
935.86	1667.05
936.03	1591.27
936.20	1638.38
936.36	1607.66
936.53	1574.89
936.70	1564.65
936.86	1794.02
937.03	1615.85
937.20	1591.27
937.36	1667.05
937.53	1540.07
937.70	1578.98
937.86	1607.66
938.03	1681.38
938.20	1761.25
938.36	1642.47
938.53	1591.27
938.70	1601.51
938.86	1601.51
939.03	1613.80
939.20	1587.18
939.36	1640.42
939.53	1716.20
939.70	1834.98
939.86	1636.33
940.03	1654.76
940.19	1597.42
940.36	1667.05
940.53	1591.27
940.69	1589.22
940.86	1718.25
941.03	1597.42
941.19	1685.48
941.36	1679.33
941.52	1656.81
941.69	1660.90
941.86	1632.23
942.02	1662.95
942.19	1650.66
942.35	1736.68
942.52	1632.23
942.69	1662.95
942.85	1591.27
943.02	1550.31
943.18	1708.01
943.35	1660.90
943.52	1650.66
943.68	1613.80
943.85	1691.62
944.01	1656.81
944.18	1718.25
944.35	1687.53
944.51	1617.90
944.68	1574.89
944.84	1609.70
945.01	1642.47
945.17	1693.67
945.34	1689.57
945.51	1628.14
945.67	1667.05
945.84	1710.05
946.00	1640.42
946.17	1550.31
946.33	1642.47
946.50	1683.43
946.67	1679.33
946.83	1624.04
947.00	1648.61
947.16	1576.94
947.33	1634.28
947.49	1619.94
947.66	1578.98
947.82	1673.19
947.99	1634.28
948.16	1658.85
948.32	1613.80
948.49	1593.32
948.65	1728.49
948.82	1687.53
948.98	1640.42
949.15	1638.38
949.31	1683.43
949.48	1568.74
949.64	1591.27
949.81	1591.27
949.97	1591.27
950.14	1667.05
950.30	1613.80
950.47	1626.09
950.63	1634.28
950.80	1589.22
950.96	1634.28
951.13	1669.09
951.30	1656.81
951.46	1638.38
951.63	1767.40
951.79	1634.28
951.96	1734.63
952.12	1626.09
952.29	1638.38
952.45	1595.37
952.62	1601.51
952.78	1724.39
952.94	1595.37
953.11	1642.47
953.27	1486.83
953.44	1740.77
953.60	1679.33
953.77	1626.09
953.93	1642.47
954.10	1697.77
954.26	1675.24
954.43	1585.13
954.59	1744.87
954.76	1724.39
954.92	1648.61
955.09	1621.99
955.25	1527.78
955.42	1630.18
955.58	1710.05
955.75	1609.70
955.91	1624.04
956.07	1568.74
956.24	1697.77
956.40	1730.53
956.57	1714.15
956.73	1578.98
956.90	1671.14
957.06	1552.36
957.23	1607.66
957.39	1554.41
957.56	1650.66
957.72	1552.36
957.88	1585.13
958.05	1701.86
958.21	1687.53
958.38	1626.09
958.54	1570.79
958.71	1662.95
958.87	1605.61
959.03	1626.09
959.20	1617.90
959.36	1574.89
959.53	1638.38
959.69	1566.70
959.85	1736.68
960.02	1519.59
960.18	1640.42
960.35	1705.96
960.51	1634.28
960.68	1576.94
960.84	1615.85
961.00	1599.46
961.17	1642.47
961.33	1656.81
961.50	1617.90
961.66	1701.86
961.82	1585.13
961.99	1632.23
962.15	1540.07
962.31	1538.02
962.48	1578.98
962.64	1652.71
962.81	1669.09
962.97	1607.66
963.13	1634.28
963.30	1527.78
963.46	1638.38
963.62	1576.94
963.79	1638.38
963.95	1587.18
964.12	1572.84
964.28	1722.34
964.44	1544.17
964.61	1693.67
964.77	1626.09
964.93	1773.54
965.10	1662.95
965.26	1615.85
965.42	1591.27
965.59	1570.79
965.75	1671.14
965.92	1640.42
966.08	1697.77
966.24	1673.19
966.41	1617.90
966.57	1718.25
966.73	1656.81
966.90	1685.48
967.06	1587.18
967.22	1597.42
967.39	1603.56
967.55	1607.66
967.71	1560.55
967.88	1632.23
968.04	1662.95
968.20	1630.18
968.37	1603.56
968.53	1667.05
968.69	1677.29
968.85	1769.44
969.02	1601.51
969.18	1675.24
969.34	1638.38
969.51	1665.00
969.67	1679.33
969.83	1587.18
970.00	1665.00
970.16	1757.16
970.32	1720.29
970.48	1736.68
970.65	1644.52
970.81	1529.83
970.97	1689.57
971.14	1517.54
971.30	1644.52
971.46	1658.85
971.63	1636.33
971.79	1656.81
971.95	1615.85
972.11	1572.84
972.28	1638.38
972.44	1660.90
972.60	1527.78
972.76	1673.19
972.93	1603.56
973.09	1595.37
973.25	1644.52
973.42	1619.94
973.58	1640.42
973.74	1669.09
973.90	1714.15
974.07	1615.85
974.23	1609.70
974.39	1658.85
974.55	1621.99
974.72	1632.23
974.88	1613.80
975.04	1630.18
975.20	1542.12
975.37	1628.14
975.53	1638.38
975.69	1638.38
975.85	1564.65
976.01	1585.13
976.18	1640.42
976.34	1607.66
976.50	1662.95
976.66	1671.14
976.83	1617.90
976.99	1609.70
977.15	1587.18
977.31	1568.74
977.47	1714.15
977.64	1581.03
977.80	1601.51
977.96	1613.80
978.12	1634.28
978.29	1648.61
978.45	1564.65
978.61	1568.74
978.77	1757.16
978.93	1597.42
979.10	1607.66
979.26	1578.98
979.42	1566.70
979.58	1439.72
979.74	1619.94
979.91	1607.66
980.07	1595.37
980.23	1699.81
980.39	1589.22
980.55	1642.47
980.71	1605.61
980.88	1564.65
981.04	1597.42
981.20	1626.09
981.36	1621.99
981.52	1546.22
981.68	1607.66
981.85	1675.24
982.01	1624.04
982.17	1558.50
982.33	1669.09
982.49	1689.57
982.65	1667.05
982.82	1630.18
982.98	1656.81
983.14	1527.78
983.30	1654.76
983.46	1626.09
983.62	1697.77
983.79	1546.22
983.95	1630.18
984.11	1552.36
984.27	1624.04
984.43	1613.80
984.59	1617.90
984.75	1644.52
984.91	1609.70
985.08	1593.32
985.24	1581.03
985.40	1533.93
985.56	1605.61
985.72	1638.38
985.88	1689.57
986.04	1632.23
986.20	1626.09
986.37	1558.50
986.53	1533.93
986.69	1597.42
986.85	1591.27
987.01	1681.38
987.17	1677.29
987.33	1626.09
987.49	1621.99
987.65	1714.15
987.82	1566.70
987.98	1615.85
988.14	1624.04
988.30	1607.66
988.46	1544.17
988.62	1601.51
988.78	1648.61
988.94	1673.19
989.10	1648.61
989.26	1554.41
989.42	1640.42
989.59	1560.55
989.75	1597.42
989.91	1652.71
990.07	1628.14
990.23	1593.32
990.39	1681.38
990.55	1617.90
990.71	1636.33
990.87	1613.80
991.03	1599.46
991.19	1617.90
991.35	1613.80
991.51	1626.09
991.67	1632.23
991.83	1632.23
992.00	1585.13
992.16	1591.27
992.32	1581.03
992.48	1644.52
992.64	1593.32
992.80	1615.85
992.96	1644.52
993.12	1634.28
993.28	1693.67
993.44	1595.37
993.60	1607.66
993.76	1650.66
993.92	1640.42
994.08	1669.09
994.24	1611.75
994.40	1603.56
994.56	1667.05
994.72	1611.75
994.88	1607.66
995.04	1708.01
995.20	1589.22
995.36	1634.28
995.52	1683.43
995.68	1613.80
995.84	1599.46
996.00	1753.06
996.16	1609.70
996.32	1624.04
996.48	1630.18
996.64	1669.09
996.80	1628.14
996.96	1665.00
997.12	1574.89
997.28	1630.18
997.44	1562.60
997.60	1605.61
997.76	1654.76
997.92	1646.57
998.08	1671.14
998.24	1566.70
998.40	1656.81
998.56	1691.62
998.72	1540.07
998.88	1626.09
999.04	1615.85
999.20	1693.67
999.36	1585.13
999.52	1691.62
999.68	1613.80
999.84	1681.38
1000.00	1673.19
1000.16	1703.91
1000.32	1519.59
1000.48	1761.25
1000.64	1648.61
1000.80	1564.65
1000.95	1566.70
1001.11	1679.33
1001.27	1626.09
1001.43	1611.75
1001.59	1564.65
1001.75	1617.90
1001.91	1568.74
1002.07	1617.90
1002.23	1648.61
1002.39	1617.90
1002.55	1585.13
1002.71	1607.66
1002.87	1609.70
1003.03	1591.27
1003.19	1515.50
1003.34	1679.33
1003.50	1566.70
1003.66	1646.57
1003.82	1665.00
1003.98	1576.94
1004.14	1671.14
1004.30	1609.70
1004.46	1578.98
1004.62	1568.74
1004.78	1650.66
1004.94	1611.75
1005.09	1626.09
1005.25	1613.80
1005.41	1642.47
1005.57	1552.36
1005.73	1597.42
1005.89	1646.57
1006.05	1597.42
1006.21	1683.43
1006.37	1601.51
1006.52	1576.94
1006.68	1499.11
1006.84	1701.86
1007.00	1540.07
1007.16	1679.33
1007.32	1607.66
1007.48	1574.89
1007.64	1642.47
1007.79	1560.55
1007.95	1564.65
1008.11	1646.57
1008.27	1613.80
1008.43	1656.81
1008.59	1632.23
1008.75	1638.38
1008.91	1599.46
1009.06	1568.74
1009.22	1632.23
1009.38	1644.52
1009.54	1638.38
1009.70	1589.22
1009.86	1605.61
1010.01	1642.47
1010.17	1544.17
1010.33	1624.04
1010.49	1634.28
1010.65	1638.38
1010.81	1613.80
1010.96	1605.61
1011.12	1589.22
1011.28	1578.98
1011.44	1634.28
1011.60	1662.95
1011.76	1542.12
1011.91	1716.20
1012.07	1595.37
1012.23	1468.39
1012.39	1578.98
1012.55	1630.18
1012.71	1603.56
1012.86	1628.14
1013.02	1591.27
1013.18	1550.31
1013.34	1628.14
1013.50	1613.80
1013.65	1632.23
1013.81	1531.88
1013.97	1572.84
1014.13	1654.76
1014.29	1550.31
1014.44	1765.35
1014.60	1597.42
1014.76	1556.46
1014.92	1673.19
1015.07	1621.99
1015.23	1581.03
1015.39	1478.63
1015.55	1605.61
1015.71	1619.94
1015.86	1564.65
1016.02	1558.50
1016.18	1585.13
1016.34	1621.99
1016.49	1658.85
1016.65	1746.92
1016.81	1611.75
1016.97	1613.80
1017.12	1667.05
1017.28	1542.12
1017.44	1550.31
1017.60	1621.99
1017.75	1648.61
1017.91	1613.80
1018.07	1624.04
1018.23	1619.94
1018.38	1589.22
1018.54	1667.05
1018.70	1650.66
1018.86	1552.36
1019.01	1636.33
1019.17	1603.56
1019.33	1658.85
1019.49	1574.89
1019.64	1595.37
1019.80	1691.62
1019.96	1658.85
1020.12	1679.33
1020.27	1626.09
1020.43	1601.51
1020.59	1665.00
1020.74	1650.66
1020.90	1689.57
1021.06	1572.84
1021.22	1619.94
1021.37	1638.38
1021.53	1509.35
1021.69	1609.70
1021.84	1574.89
1022.00	1640.42
1022.16	1572.84
1022.31	1593.32
1022.47	1648.61
1022.63	1650.66
1022.79	1546.22
1022.94	1576.94
1023.10	1634.28
1023.26	1654.76
1023.41	1570.79
1023.57	1599.46
1023.73	1691.62
1023.88	1611.75
1024.04	1597.42
1024.20	1581.03
1024.35	1683.43
1024.51	1570.79
1024.67	1591.27
1024.82	1724.39
1024.98	1576.94
1025.14	1703.91
1025.29	1638.38
1025.45	1638.38
1025.61	1597.42
1025.76	1626.09
1025.92	1617.90
1026.08	1683.43
1026.23	1656.81
1026.39	1607.66
1026.55	1671.14
1026.70	1630.18
1026.86	1630.18
1027.02	1728.49
1027.17	1681.38
1027.33	1675.24
1027.48	1613.80
1027.64	1593.32
1027.80	1556.46
1027.95	1687.53
1028.11	1564.65
1028.27	1624.04
1028.42	1662.95
1028.58	1587.18
1028.73	1636.33
1028.89	1544.17
1029.05	1656.81
1029.20	1675.24
>>>>>End Processed Spectral Data<<<<<
