SpectraSuite Data File
++++++++++++++++++++++++++++++++++++
Date: Fri Jun 02 14:51:05 CEST 2017
User: INFO_000
Dark Spectrum Present: No
Reference Spectrum Present: No
Number of Sampled Component Spectra: 1
Spectrometers: USB4H00879
Integration Time (usec): 80000 (USB4H00879)
Spectra Averaged: 1 (USB4H00879)
Boxcar Smoothing: 0 (USB4H00879)
Correct for Electrical Dark: No (USB4H00879)
Strobe/Lamp Enabled: No (USB4H00879)
Correct for Detector Non-linearity: No (USB4H00879)
Correct for Stray Light: No (USB4H00879)
Number of Pixels in Processed Spectrum: 3648
>>>>>Begin Processed Spectral Data<<<<<
345.13	1304.56
345.34	1304.56
345.56	1304.56
345.78	1294.32
345.99	1300.46
346.21	1693.67
346.42	1781.73
346.64	1646.57
346.86	1773.54
347.07	1736.68
347.29	1728.49
347.50	1660.90
347.72	1714.15
347.94	1755.11
348.15	1560.55
348.37	1511.40
348.59	1675.24
348.80	1597.42
349.02	1789.92
349.23	1742.82
349.45	1675.24
349.67	1798.12
349.88	1708.01
350.10	1816.55
350.31	1701.86
350.53	1656.81
350.75	1855.46
350.96	1744.87
351.18	1748.97
351.39	1734.63
351.61	1609.70
351.82	1789.92
352.04	1765.35
352.26	1658.85
352.47	1763.30
352.69	1763.30
352.90	1619.94
353.12	1681.38
353.34	1740.77
353.55	1755.11
353.77	1681.38
353.98	1630.18
354.20	1779.68
354.41	1773.54
354.63	1732.58
354.85	1898.47
355.06	1720.29
355.28	1624.04
355.49	1599.46
355.71	1736.68
355.92	1744.87
356.14	1781.73
356.35	1794.02
356.57	1697.77
356.79	1744.87
357.00	1660.90
357.22	1757.16
357.43	1695.72
357.65	1753.06
357.86	1724.39
358.08	1650.66
358.29	1654.76
358.51	1744.87
358.72	1728.49
358.94	1720.29
359.16	1685.48
359.37	1685.48
359.59	1744.87
359.80	1802.21
360.02	1738.73
360.23	1689.57
360.45	1800.16
360.66	1705.96
360.88	1650.66
361.09	1705.96
361.31	1710.05
361.52	1763.30
361.74	1730.53
361.95	1773.54
362.17	1724.39
362.38	1820.64
362.60	1769.44
362.81	1773.54
363.03	1728.49
363.24	1642.47
363.46	1787.88
363.67	1740.77
363.89	1796.07
364.10	1679.33
364.32	1652.71
364.53	1736.68
364.75	1638.38
364.96	1710.05
365.18	1761.25
365.39	1662.95
365.61	1693.67
365.82	1730.53
366.04	1730.53
366.25	1699.81
366.47	1621.99
366.68	1755.11
366.90	1648.61
367.11	1771.49
367.33	1787.88
367.54	1769.44
367.76	1648.61
367.97	1775.59
368.19	1722.34
368.40	1701.86
368.62	1677.29
368.83	1613.80
369.05	1728.49
369.26	1646.57
369.48	1699.81
369.69	1632.23
369.91	1732.58
370.12	1693.67
370.33	1783.78
370.55	1699.81
370.76	1738.73
370.98	1738.73
371.19	1730.53
371.41	1652.71
371.62	1644.52
371.84	1609.70
372.05	1837.03
372.27	1687.53
372.48	1679.33
372.69	1693.67
372.91	1751.01
373.12	1755.11
373.34	1640.42
373.55	1828.84
373.77	1773.54
373.98	1615.85
374.20	1712.10
374.41	1861.60
374.62	1669.09
374.84	1761.25
375.05	1712.10
375.27	1689.57
375.48	1650.66
375.70	1763.30
375.91	1777.64
376.12	1818.60
376.34	1673.19
376.55	1716.20
376.77	1798.12
376.98	1626.09
377.19	1687.53
377.41	1642.47
377.62	1724.39
377.84	1789.92
378.05	1781.73
378.27	1732.58
378.48	1769.44
378.69	1855.46
378.91	1820.64
379.12	1761.25
379.34	1650.66
379.55	1779.68
379.76	1685.48
379.98	1642.47
380.19	1732.58
380.41	1660.90
380.62	1689.57
380.83	1671.14
381.05	1581.03
381.26	1816.55
381.47	1748.97
381.69	1648.61
381.90	1832.93
382.12	1726.44
382.33	1665.00
382.54	1605.61
382.76	1744.87
382.97	1677.29
383.19	1644.52
383.40	1720.29
383.61	1652.71
383.83	1632.23
384.04	1644.52
384.25	1712.10
384.47	1765.35
384.68	1712.10
384.89	1671.14
385.11	1660.90
385.32	1644.52
385.54	1656.81
385.75	1701.86
385.96	1734.63
386.18	1630.18
386.39	1640.42
386.60	1576.94
386.82	1703.91
387.03	1716.20
387.24	1673.19
387.46	1626.09
387.67	1736.68
387.88	1708.01
388.10	1671.14
388.31	1730.53
388.52	1834.98
388.74	1755.11
388.95	1599.46
389.16	1644.52
389.38	1591.27
389.59	1781.73
389.80	1777.64
390.02	1710.05
390.23	1820.64
390.44	1695.72
390.66	1695.72
390.87	1710.05
391.08	1751.01
391.30	1863.65
391.51	1773.54
391.72	1677.29
391.94	1736.68
392.15	1628.14
392.36	1654.76
392.58	1644.52
392.79	1714.15
393.00	1781.73
393.22	1742.82
393.43	1724.39
393.64	1796.07
393.85	1828.84
394.07	1597.42
394.28	1708.01
394.49	1751.01
394.71	1699.81
394.92	1755.11
395.13	1652.71
395.35	1681.38
395.56	1656.81
395.77	1673.19
395.98	1691.62
396.20	1693.67
396.41	1728.49
396.62	1791.97
396.84	1673.19
397.05	1658.85
397.26	1703.91
397.47	1753.06
397.69	1667.05
397.90	1798.12
398.11	1765.35
398.32	1660.90
398.54	1720.29
398.75	1736.68
398.96	1710.05
399.18	1722.34
399.39	1720.29
399.60	1691.62
399.81	1638.38
400.03	1626.09
400.24	1953.76
400.45	1759.21
400.66	1697.77
400.88	1673.19
401.09	1865.70
401.30	1691.62
401.51	1779.68
401.73	1785.83
401.94	1755.11
402.15	1708.01
402.36	1751.01
402.58	1759.21
402.79	1742.82
403.00	1679.33
403.21	1693.67
403.43	1796.07
403.64	1755.11
403.85	1722.34
404.06	1785.83
404.27	1554.41
404.49	1646.57
404.70	1734.63
404.91	1726.44
405.12	1687.53
405.34	1767.40
405.55	1853.41
405.76	1609.70
405.97	1665.00
406.19	1751.01
406.40	1572.84
406.61	1740.77
406.82	1648.61
407.03	1626.09
407.25	1638.38
407.46	1871.84
407.67	1742.82
407.88	1773.54
408.09	1746.92
408.31	1673.19
408.52	1720.29
408.73	1757.16
408.94	1681.38
409.15	1738.73
409.37	1732.58
409.58	1677.29
409.79	1751.01
410.00	1771.49
410.21	1695.72
410.43	1675.24
410.64	1574.89
410.85	1812.45
411.06	1699.81
411.27	1703.91
411.48	1714.15
411.70	1716.20
411.91	1767.40
412.12	1712.10
412.33	1863.65
412.54	1714.15
412.76	1757.16
412.97	1789.92
413.18	1660.90
413.39	1748.97
413.60	1820.64
413.81	1728.49
414.03	1603.56
414.24	1648.61
414.45	1839.08
414.66	1599.46
414.87	1642.47
415.08	1656.81
415.30	1673.19
415.51	1724.39
415.72	1736.68
415.93	1677.29
416.14	1722.34
416.35	1751.01
416.56	1789.92
416.78	1685.48
416.99	1621.99
417.20	1697.77
417.41	1812.45
417.62	1708.01
417.83	1796.07
418.04	1626.09
418.26	1781.73
418.47	1763.30
418.68	1728.49
418.89	1781.73
419.10	1875.94
419.31	1751.01
419.52	1701.86
419.73	1660.90
419.95	1763.30
420.16	1665.00
420.37	1671.14
420.58	1724.39
420.79	1576.94
421.00	1691.62
421.21	1734.63
421.42	1626.09
421.63	1609.70
421.85	1685.48
422.06	1705.96
422.27	1757.16
422.48	1699.81
422.69	1699.81
422.90	1669.09
423.11	1650.66
423.32	1804.26
423.53	1818.60
423.75	1697.77
423.96	1718.25
424.17	1781.73
424.38	1824.74
424.59	1619.94
424.80	1714.15
425.01	1681.38
425.22	1626.09
425.43	1679.33
425.64	1746.92
425.85	1787.88
426.06	1789.92
426.28	1642.47
426.49	1718.25
426.70	1648.61
426.91	1691.62
427.12	1724.39
427.33	1757.16
427.54	1677.29
427.75	1673.19
427.96	1710.05
428.17	1720.29
428.38	1617.90
428.59	1755.11
428.80	1734.63
429.01	1599.46
429.23	1646.57
429.44	1634.28
429.65	1726.44
429.86	1667.05
430.07	1689.57
430.28	1652.71
430.49	1738.73
430.70	1740.77
430.91	1828.84
431.12	1626.09
431.33	1695.72
431.54	1755.11
431.75	1695.72
431.96	1701.86
432.17	1691.62
432.38	1699.81
432.59	1863.65
432.80	1724.39
433.01	1724.39
433.22	1746.92
433.43	1722.34
433.64	1751.01
433.85	1789.92
434.06	1699.81
434.27	1601.51
434.49	1703.91
434.70	1744.87
434.91	1720.29
435.12	1738.73
435.33	1662.95
435.54	1689.57
435.75	1642.47
435.96	1630.18
436.17	1650.66
436.38	1761.25
436.59	1757.16
436.80	1630.18
437.01	1822.69
437.22	1705.96
437.43	1787.88
437.64	1576.94
437.85	1691.62
438.06	1730.53
438.27	1650.66
438.48	1650.66
438.69	1728.49
438.90	1669.09
439.11	1718.25
439.32	1818.60
439.53	1650.66
439.74	1628.14
439.95	1720.29
440.16	1683.43
440.37	1703.91
440.57	1681.38
440.78	1689.57
440.99	1703.91
441.20	1796.07
441.41	1558.50
441.62	1626.09
441.83	1609.70
442.04	1597.42
442.25	1675.24
442.46	1652.71
442.67	1585.13
442.88	1855.46
443.09	1669.09
443.30	1689.57
443.51	1621.99
443.72	1708.01
443.93	1646.57
444.14	1822.69
444.35	1626.09
444.56	1607.66
444.77	1683.43
444.98	1650.66
445.19	1632.23
445.40	1716.20
445.61	1716.20
445.81	1613.80
446.02	1773.54
446.23	1683.43
446.44	1646.57
446.65	1712.10
446.86	1779.68
447.07	1796.07
447.28	1636.33
447.49	1724.39
447.70	1662.95
447.91	1746.92
448.12	1742.82
448.33	1740.77
448.54	1718.25
448.74	1697.77
448.95	1720.29
449.16	1691.62
449.37	1708.01
449.58	1763.30
449.79	1765.35
450.00	1617.90
450.21	1687.53
450.42	1665.00
450.63	1712.10
450.84	1703.91
451.05	1726.44
451.25	1652.71
451.46	1615.85
451.67	1761.25
451.88	1773.54
452.09	1757.16
452.30	1669.09
452.51	1699.81
452.72	1769.44
452.93	1777.64
453.13	1665.00
453.34	1574.89
453.55	1701.86
453.76	1671.14
453.97	1642.47
454.18	1654.76
454.39	1705.96
454.60	1722.34
454.81	1755.11
455.01	1654.76
455.22	1630.18
455.43	1624.04
455.64	1742.82
455.85	1742.82
456.06	1679.33
456.27	1841.12
456.48	1705.96
456.68	1691.62
456.89	1742.82
457.10	1617.90
457.31	1714.15
457.52	1695.72
457.73	1765.35
457.94	1697.77
458.14	1632.23
458.35	1716.20
458.56	1662.95
458.77	1630.18
458.98	1720.29
459.19	1687.53
459.39	1699.81
459.60	1650.66
459.81	1601.51
460.02	1667.05
460.23	1691.62
460.44	1701.86
460.65	1617.90
460.85	1736.68
461.06	1558.50
461.27	1716.20
461.48	1677.29
461.69	1693.67
461.89	1585.13
462.10	1624.04
462.31	1587.18
462.52	1601.51
462.73	1654.76
462.94	1744.87
463.14	1681.38
463.35	1652.71
463.56	1712.10
463.77	1722.34
463.98	1648.61
464.18	1667.05
464.39	1757.16
464.60	1757.16
464.81	1521.64
465.02	1703.91
465.23	1722.34
465.43	1687.53
465.64	1662.95
465.85	1583.08
466.06	1705.96
466.27	1755.11
466.47	1671.14
466.68	1658.85
466.89	1683.43
467.10	1583.08
467.30	1564.65
467.51	1722.34
467.72	1845.22
467.93	1603.56
468.14	1658.85
468.34	1806.31
468.55	1671.14
468.76	1712.10
468.97	1675.24
469.17	1779.68
469.38	1757.16
469.59	1740.77
469.80	1714.15
470.01	1677.29
470.21	1699.81
470.42	1705.96
470.63	1785.83
470.84	1765.35
471.04	1624.04
471.25	1892.32
471.46	1759.21
471.67	1777.64
471.87	1726.44
472.08	1814.50
472.29	1662.95
472.50	1779.68
472.70	1675.24
472.91	1613.80
473.12	1705.96
473.33	1654.76
473.53	1683.43
473.74	1591.27
473.95	1638.38
474.16	1683.43
474.36	1626.09
474.57	1783.78
474.78	1716.20
474.99	1744.87
475.19	1660.90
475.40	1761.25
475.61	1757.16
475.81	1699.81
476.02	1669.09
476.23	1642.47
476.44	1667.05
476.64	1679.33
476.85	1751.01
477.06	1593.32
477.27	1677.29
477.47	1716.20
477.68	1644.52
477.89	1667.05
478.09	1701.86
478.30	1683.43
478.51	1646.57
478.71	1632.23
478.92	1789.92
479.13	1714.15
479.34	1669.09
479.54	1746.92
479.75	1689.57
479.96	1673.19
480.16	1687.53
480.37	1705.96
480.58	1701.86
480.78	1828.84
480.99	1658.85
481.20	1673.19
481.41	1720.29
481.61	1636.33
481.82	1767.40
482.03	1652.71
482.23	1640.42
482.44	1781.73
482.65	1783.78
482.85	1794.02
483.06	1744.87
483.27	1726.44
483.47	1675.24
483.68	1712.10
483.89	1753.06
484.09	1753.06
484.30	1687.53
484.51	1812.45
484.71	1667.05
484.92	1642.47
485.13	1744.87
485.33	1667.05
485.54	1644.52
485.75	1681.38
485.95	1755.11
486.16	1777.64
486.37	1728.49
486.57	1683.43
486.78	1601.51
486.98	1675.24
487.19	1703.91
487.40	1798.12
487.60	1728.49
487.81	1677.29
488.02	1593.32
488.22	1734.63
488.43	1763.30
488.64	1687.53
488.84	1642.47
489.05	1720.29
489.25	1667.05
489.46	1691.62
489.67	1718.25
489.87	1695.72
490.08	1773.54
490.29	1621.99
490.49	1857.51
490.70	1742.82
490.90	1671.14
491.11	1673.19
491.32	1736.68
491.52	1583.08
491.73	1738.73
491.94	1636.33
492.14	1634.28
492.35	1695.72
492.55	1746.92
492.76	1695.72
492.97	1638.38
493.17	1697.77
493.38	1773.54
493.58	1806.31
493.79	1658.85
494.00	1699.81
494.20	1642.47
494.41	1761.25
494.61	1712.10
494.82	1646.57
495.02	1621.99
495.23	1746.92
495.44	1744.87
495.64	1740.77
495.85	1703.91
496.05	1734.63
496.26	1578.98
496.47	1705.96
496.67	1705.96
496.88	1798.12
497.08	1677.29
497.29	1669.09
497.49	1734.63
497.70	1757.16
497.91	1703.91
498.11	1757.16
498.32	1681.38
498.52	1724.39
498.73	1773.54
498.93	1720.29
499.14	1777.64
499.34	1732.58
499.55	1785.83
499.76	1617.90
499.96	1697.77
500.17	1753.06
500.37	1761.25
500.58	1691.62
500.78	1624.04
500.99	1669.09
501.19	1681.38
501.40	1701.86
501.60	1630.18
501.81	1675.24
502.02	1691.62
502.22	1669.09
502.43	1728.49
502.63	1875.94
502.84	1755.11
503.04	1679.33
503.25	1812.45
503.45	1791.97
503.66	1624.04
503.86	1753.06
504.07	1775.59
504.27	1660.90
504.48	1669.09
504.68	1605.61
504.89	1822.69
505.09	1609.70
505.30	1660.90
505.50	1755.11
505.71	1683.43
505.91	1679.33
506.12	1646.57
506.32	1695.72
506.53	1630.18
506.73	1722.34
506.94	1689.57
507.14	1642.47
507.35	1753.06
507.55	1673.19
507.76	1755.11
507.96	1677.29
508.17	1781.73
508.37	1759.21
508.58	1818.60
508.78	1748.97
508.99	1781.73
509.19	1744.87
509.40	1689.57
509.60	1705.96
509.81	1794.02
510.01	1693.67
510.22	1703.91
510.42	1798.12
510.63	1753.06
510.83	1662.95
511.04	1681.38
511.24	1773.54
511.44	1667.05
511.65	1632.23
511.85	1824.74
512.06	1761.25
512.26	1673.19
512.47	1759.21
512.67	1605.61
512.88	1730.53
513.08	1615.85
513.29	1787.88
513.49	1644.52
513.69	1648.61
513.90	1650.66
514.10	1705.96
514.31	1738.73
514.51	1683.43
514.72	1751.01
514.92	1701.86
515.13	1611.75
515.33	1685.48
515.53	1691.62
515.74	1769.44
515.94	1716.20
516.15	1757.16
516.35	1605.61
516.56	1689.57
516.76	1677.29
516.96	1714.15
517.17	1740.77
517.37	1599.46
517.58	1617.90
517.78	1621.99
517.99	1746.92
518.19	1759.21
518.39	1665.00
518.60	1777.64
518.80	1751.01
519.01	1712.10
519.21	1691.62
519.41	1603.56
519.62	1630.18
519.82	1742.82
520.03	1681.38
520.23	1609.70
520.43	1619.94
520.64	1769.44
520.84	1810.40
521.05	1619.94
521.25	1775.59
521.45	1712.10
521.66	1736.68
521.86	1716.20
522.07	1748.97
522.27	1667.05
522.47	1589.22
522.68	1765.35
522.88	1673.19
523.08	1757.16
523.29	1576.94
523.49	1679.33
523.70	1597.42
523.90	1691.62
524.10	1710.05
524.31	1691.62
524.51	1476.59
524.71	1720.29
524.92	1748.97
525.12	1601.51
525.33	1732.58
525.53	1722.34
525.73	1728.49
525.94	1677.29
526.14	1693.67
526.34	1646.57
526.55	1705.96
526.75	1656.81
526.95	1773.54
527.16	1630.18
527.36	1667.05
527.56	1761.25
527.77	1658.85
527.97	1701.86
528.17	1691.62
528.38	1691.62
528.58	1722.34
528.78	1671.14
528.99	1611.75
529.19	1724.39
529.39	1617.90
529.60	1687.53
529.80	1685.48
530.00	1642.47
530.21	1632.23
530.41	1710.05
530.61	1761.25
530.82	1716.20
531.02	1683.43
531.22	1673.19
531.43	1697.77
531.63	1728.49
531.83	1712.10
532.04	1746.92
532.24	1624.04
532.44	1691.62
532.64	1775.59
532.85	1697.77
533.05	1630.18
533.25	1630.18
533.46	1689.57
533.66	1662.95
533.86	1634.28
534.07	1687.53
534.27	1724.39
534.47	1712.10
534.67	1718.25
534.88	1679.33
535.08	1716.20
535.28	1728.49
535.49	1626.09
535.69	1757.16
535.89	1767.40
536.09	1775.59
536.30	1720.29
536.50	1765.35
536.70	1722.34
536.91	1751.01
537.11	1751.01
537.31	1681.38
537.51	1667.05
537.72	1701.86
537.92	1714.15
538.12	1804.26
538.32	1718.25
538.53	1753.06
538.73	1654.76
538.93	1642.47
539.13	1746.92
539.34	1806.31
539.54	1624.04
539.74	1751.01
539.94	1687.53
540.15	1820.64
540.35	1669.09
540.55	1642.47
540.75	1646.57
540.96	1728.49
541.16	1716.20
541.36	1757.16
541.56	1767.40
541.77	1712.10
541.97	1665.00
542.17	1740.77
542.37	1845.22
542.58	1705.96
542.78	1724.39
542.98	1720.29
543.18	1728.49
543.38	1689.57
543.59	1703.91
543.79	1615.85
543.99	1656.81
544.19	1644.52
544.40	1660.90
544.60	1675.24
544.80	1697.77
545.00	1640.42
545.20	1779.68
545.41	1617.90
545.61	1660.90
545.81	1708.01
546.01	1699.81
546.21	1730.53
546.42	1708.01
546.62	1765.35
546.82	1621.99
547.02	1671.14
547.22	1699.81
547.43	1753.06
547.63	1617.90
547.83	1699.81
548.03	1617.90
548.23	1781.73
548.44	1697.77
548.64	1576.94
548.84	1693.67
549.04	1574.89
549.24	1800.16
549.45	1859.56
549.65	1636.33
549.85	1796.07
550.05	1677.29
550.25	1609.70
550.45	1771.49
550.66	1763.30
550.86	1695.72
551.06	1671.14
551.26	1742.82
551.46	1607.66
551.66	1767.40
551.87	1728.49
552.07	1669.09
552.27	1724.39
552.47	1812.45
552.67	1683.43
552.87	1673.19
553.07	1642.47
553.28	1736.68
553.48	1730.53
553.68	1644.52
553.88	1777.64
554.08	1701.86
554.28	1671.14
554.48	1693.67
554.69	1705.96
554.89	1722.34
555.09	1660.90
555.29	1621.99
555.49	1738.73
555.69	1720.29
555.89	1708.01
556.10	1753.06
556.30	1691.62
556.50	1679.33
556.70	1695.72
556.90	1703.91
557.10	1755.11
557.30	1738.73
557.50	1617.90
557.70	1781.73
557.91	1630.18
558.11	1734.63
558.31	1816.55
558.51	1767.40
558.71	1791.97
558.91	1720.29
559.11	1648.61
559.31	1656.81
559.51	1708.01
559.72	1744.87
559.92	1640.42
560.12	1646.57
560.32	1722.34
560.52	1730.53
560.72	1656.81
560.92	1748.97
561.12	1683.43
561.32	1652.71
561.52	1697.77
561.72	1873.89
561.93	1740.77
562.13	1658.85
562.33	1658.85
562.53	1609.70
562.73	1685.48
562.93	1699.81
563.13	1744.87
563.33	1796.07
563.53	1712.10
563.73	1751.01
563.93	1771.49
564.13	1740.77
564.33	1781.73
564.53	1687.53
564.74	1667.05
564.94	1716.20
565.14	1732.58
565.34	1699.81
565.54	1689.57
565.74	1712.10
565.94	1691.62
566.14	1710.05
566.34	1791.97
566.54	1726.44
566.74	1742.82
566.94	1740.77
567.14	1726.44
567.34	1658.85
567.54	1722.34
567.74	1798.12
567.94	1720.29
568.14	1648.61
568.34	1777.64
568.54	1621.99
568.74	1650.66
568.94	1742.82
569.14	1785.83
569.34	1736.68
569.54	1732.58
569.75	1681.38
569.95	1714.15
570.15	1787.88
570.35	1736.68
570.55	1626.09
570.75	1642.47
570.95	1763.30
571.15	1822.69
571.35	1751.01
571.55	1746.92
571.75	1685.48
571.95	1732.58
572.15	1603.56
572.35	1730.53
572.55	1730.53
572.75	1636.33
572.95	1675.24
573.15	1697.77
573.35	1712.10
573.55	1740.77
573.75	1628.14
573.95	1812.45
574.15	1751.01
574.35	1697.77
574.55	1619.94
574.75	1699.81
574.95	1669.09
575.15	1652.71
575.34	1718.25
575.54	1712.10
575.74	1730.53
575.94	1695.72
576.14	1595.37
576.34	1718.25
576.54	1740.77
576.74	1765.35
576.94	1634.28
577.14	1716.20
577.34	1728.49
577.54	1699.81
577.74	1605.61
577.94	1724.39
578.14	1628.14
578.34	1728.49
578.54	1617.90
578.74	1669.09
578.94	1720.29
579.14	1769.44
579.34	1601.51
579.54	1787.88
579.74	1673.19
579.94	1673.19
580.13	1718.25
580.33	1636.33
580.53	1652.71
580.73	1636.33
580.93	1746.92
581.13	1660.90
581.33	1665.00
581.53	1691.62
581.73	1687.53
581.93	1681.38
582.13	1742.82
582.33	1730.53
582.53	1619.94
582.73	1718.25
582.92	1628.14
583.12	1798.12
583.32	1609.70
583.52	1716.20
583.72	1781.73
583.92	1712.10
584.12	1662.95
584.32	1767.40
584.52	1581.03
584.72	1671.14
584.92	1669.09
585.11	1693.67
585.31	1767.40
585.51	1640.42
585.71	1777.64
585.91	1767.40
586.11	1695.72
586.31	1689.57
586.51	1648.61
586.71	1777.64
586.91	1703.91
587.10	1720.29
587.30	1796.07
587.50	1767.40
587.70	1697.77
587.90	1701.86
588.10	1685.48
588.30	1628.14
588.50	1720.29
588.69	1701.86
588.89	1673.19
589.09	1671.14
589.29	1656.81
589.49	1757.16
589.69	1654.76
589.89	1748.97
590.08	1650.66
590.28	1605.61
590.48	1722.34
590.68	1665.00
590.88	1646.57
591.08	1640.42
591.28	1734.63
591.47	1679.33
591.67	1564.65
591.87	1673.19
592.07	1855.46
592.27	1603.56
592.47	1609.70
592.67	1716.20
592.86	1617.90
593.06	1722.34
593.26	1738.73
593.46	1675.24
593.66	1585.13
593.86	1714.15
594.05	1718.25
594.25	1787.88
594.45	1646.57
594.65	1757.16
594.85	1837.03
595.05	1628.14
595.24	1675.24
595.44	1742.82
595.64	1673.19
595.84	1748.97
596.04	1677.29
596.23	1773.54
596.43	1658.85
596.63	1693.67
596.83	1753.06
597.03	1814.50
597.22	1665.00
597.42	1740.77
597.62	1769.44
597.82	1716.20
598.02	1705.96
598.21	1681.38
598.41	1710.05
598.61	1646.57
598.81	1654.76
599.01	1759.21
599.20	1685.48
599.40	1619.94
599.60	1726.44
599.80	1705.96
600.00	1843.17
600.19	1773.54
600.39	1695.72
600.59	1742.82
600.79	1777.64
600.98	1720.29
601.18	1695.72
601.38	1718.25
601.58	1708.01
601.78	1759.21
601.97	1761.25
602.17	1708.01
602.37	1650.66
602.57	1781.73
602.76	1746.92
602.96	1634.28
603.16	1683.43
603.36	1716.20
603.55	1708.01
603.75	1683.43
603.95	1693.67
604.15	1763.30
604.34	1695.72
604.54	1703.91
604.74	1796.07
604.94	1718.25
605.13	1714.15
605.33	1722.34
605.53	1652.71
605.73	1720.29
605.92	1656.81
606.12	1669.09
606.32	1687.53
606.52	1779.68
606.71	1695.72
606.91	1609.70
607.11	1732.58
607.30	1740.77
607.50	1753.06
607.70	1804.26
607.90	1746.92
608.09	1679.33
608.29	1699.81
608.49	1763.30
608.68	1648.61
608.88	1658.85
609.08	1650.66
609.28	1703.91
609.47	1621.99
609.67	1812.45
609.87	1708.01
610.06	1732.58
610.26	1679.33
610.46	1804.26
610.66	1621.99
610.85	1662.95
611.05	1746.92
611.25	1675.24
611.44	1642.47
611.64	1736.68
611.84	1751.01
612.03	1691.62
612.23	1667.05
612.43	1726.44
612.62	1656.81
612.82	1734.63
613.02	1740.77
613.21	1789.92
613.41	1765.35
613.61	1701.86
613.80	1585.13
614.00	1601.51
614.20	1656.81
614.39	1769.44
614.59	1736.68
614.79	1650.66
614.98	1697.77
615.18	1673.19
615.38	1673.19
615.57	1646.57
615.77	1910.75
615.97	1681.38
616.16	1777.64
616.36	1767.40
616.56	1695.72
616.75	1660.90
616.95	1656.81
617.15	1808.36
617.34	1697.77
617.54	1822.69
617.74	1810.40
617.93	1744.87
618.13	1701.86
618.32	1650.66
618.52	1761.25
618.72	1675.24
618.91	1746.92
619.11	1775.59
619.31	1751.01
619.50	1693.67
619.70	1667.05
619.90	1810.40
620.09	1728.49
620.29	1722.34
620.48	1843.17
620.68	1759.21
620.88	1757.16
621.07	1718.25
621.27	1683.43
621.46	1759.21
621.66	1757.16
621.86	1685.48
622.05	1687.53
622.25	1822.69
622.44	1654.76
622.64	1685.48
622.84	1742.82
623.03	1640.42
623.23	1634.28
623.42	1662.95
623.62	1794.02
623.82	1759.21
624.01	1705.96
624.21	1656.81
624.40	1808.36
624.60	1613.80
624.80	1712.10
624.99	1744.87
625.19	1652.71
625.38	1720.29
625.58	1740.77
625.77	1671.14
625.97	1716.20
626.17	1642.47
626.36	1660.90
626.56	1716.20
626.75	1673.19
626.95	1689.57
627.14	1697.77
627.34	1722.34
627.54	1677.29
627.73	1771.49
627.93	1763.30
628.12	1673.19
628.32	1695.72
628.51	1679.33
628.71	1798.12
628.90	1699.81
629.10	1679.33
629.30	1605.61
629.49	1761.25
629.69	1617.90
629.88	1667.05
630.08	1822.69
630.27	1857.51
630.47	1753.06
630.66	1677.29
630.86	1726.44
631.05	1585.13
631.25	1685.48
631.44	1783.78
631.64	1689.57
631.84	1636.33
632.03	1781.73
632.23	1697.77
632.42	1665.00
632.62	1695.72
632.81	1716.20
633.01	1753.06
633.20	1894.37
633.40	1804.26
633.59	1683.43
633.79	1683.43
633.98	1732.58
634.18	1781.73
634.37	1703.91
634.57	1673.19
634.76	1650.66
634.96	1787.88
635.15	1867.75
635.35	1703.91
635.54	1710.05
635.74	1716.20
635.93	1660.90
636.13	1681.38
636.32	1681.38
636.52	1732.58
636.71	1660.90
636.91	1675.24
637.10	1802.21
637.30	1667.05
637.49	1730.53
637.69	1759.21
637.88	1712.10
638.08	1691.62
638.27	1712.10
638.46	1667.05
638.66	1712.10
638.85	1648.61
639.05	1699.81
639.24	1830.88
639.44	1662.95
639.63	1798.12
639.83	1798.12
640.02	1714.15
640.22	1734.63
640.41	1587.18
640.61	1753.06
640.80	1705.96
640.99	1744.87
641.19	1798.12
641.38	1808.36
641.58	1710.05
641.77	1710.05
641.97	1611.75
642.16	1669.09
642.36	1662.95
642.55	1650.66
642.74	1757.16
642.94	1695.72
643.13	1665.00
643.33	1757.16
643.52	1644.52
643.72	1757.16
643.91	1693.67
644.10	1734.63
644.30	1658.85
644.49	1679.33
644.69	1787.88
644.88	1769.44
645.08	1781.73
645.27	1755.11
645.46	1687.53
645.66	1683.43
645.85	1708.01
646.05	1705.96
646.24	1687.53
646.43	1748.97
646.63	1777.64
646.82	1716.20
647.02	1644.52
647.21	1837.03
647.40	1689.57
647.60	1642.47
647.79	1718.25
647.99	1632.23
648.18	1695.72
648.37	1714.15
648.57	1761.25
648.76	1691.62
648.96	1648.61
649.15	1695.72
649.34	1812.45
649.54	1708.01
649.73	1656.81
649.92	1732.58
650.12	1685.48
650.31	1716.20
650.51	1957.86
650.70	1742.82
650.89	1634.28
651.09	1777.64
651.28	1785.83
651.47	1587.18
651.67	1705.96
651.86	1765.35
652.06	1716.20
652.25	1732.58
652.44	1667.05
652.64	1738.73
652.83	1681.38
653.02	1738.73
653.22	1708.01
653.41	1636.33
653.60	1710.05
653.80	1628.14
653.99	1759.21
654.18	1636.33
654.38	1544.17
654.57	1714.15
654.76	1773.54
654.96	1689.57
655.15	1638.38
655.34	1701.86
655.54	1667.05
655.73	1687.53
655.92	1650.66
656.12	1662.95
656.31	1787.88
656.50	1757.16
656.70	1730.53
656.89	1662.95
657.08	1648.61
657.28	1746.92
657.47	1740.77
657.66	1632.23
657.86	1667.05
658.05	1726.44
658.24	1765.35
658.43	1736.68
658.63	1671.14
658.82	1751.01
659.01	1681.38
659.21	1763.30
659.40	1681.38
659.59	1712.10
659.79	1732.58
659.98	1834.98
660.17	1712.10
660.36	1724.39
660.56	1740.77
660.75	1740.77
660.94	1708.01
661.14	1691.62
661.33	1546.22
661.52	1679.33
661.71	1865.70
661.91	1673.19
662.10	1724.39
662.29	1599.46
662.49	1720.29
662.68	1658.85
662.87	1662.95
663.06	1742.82
663.26	1691.62
663.45	1814.50
663.64	1665.00
663.83	1794.02
664.03	1779.68
664.22	1753.06
664.41	1677.29
664.60	1781.73
664.80	1617.90
664.99	1748.97
665.18	1748.97
665.37	1691.62
665.57	1828.84
665.76	1703.91
665.95	1712.10
666.14	1746.92
666.34	1728.49
666.53	1679.33
666.72	1673.19
666.91	1703.91
667.11	1728.49
667.30	1822.69
667.49	1660.90
667.68	1785.83
667.87	1667.05
668.07	1816.55
668.26	1568.74
668.45	1578.98
668.64	1705.96
668.84	1769.44
669.03	1656.81
669.22	1839.08
669.41	1703.91
669.60	1597.42
669.80	1757.16
669.99	1755.11
670.18	1683.43
670.37	1791.97
670.57	1720.29
670.76	1728.49
670.95	1769.44
671.14	1683.43
671.33	1632.23
671.53	1796.07
671.72	1775.59
671.91	1804.26
672.10	1640.42
672.29	1732.58
672.48	1644.52
672.68	1679.33
672.87	1703.91
673.06	1703.91
673.25	1638.38
673.44	1667.05
673.64	1662.95
673.83	1689.57
674.02	1638.38
674.21	1726.44
674.40	1740.77
674.59	1675.24
674.79	1701.86
674.98	1759.21
675.17	1816.55
675.36	1609.70
675.55	1656.81
675.74	1648.61
675.94	1751.01
676.13	1791.97
676.32	1742.82
676.51	1726.44
676.70	1593.32
676.89	1656.81
677.08	1675.24
677.28	1834.98
677.47	1701.86
677.66	1687.53
677.85	1589.22
678.04	1746.92
678.23	1712.10
678.42	1677.29
678.62	1677.29
678.81	1679.33
679.00	1730.53
679.19	1720.29
679.38	1738.73
679.57	1703.91
679.76	1689.57
679.96	1679.33
680.15	1716.20
680.34	1634.28
680.53	1738.73
680.72	1724.39
680.91	1658.85
681.10	1726.44
681.29	1636.33
681.48	1744.87
681.68	1736.68
681.87	1820.64
682.06	1738.73
682.25	1812.45
682.44	1685.48
682.63	1753.06
682.82	1581.03
683.01	1787.88
683.20	1662.95
683.39	1845.22
683.59	1675.24
683.78	1640.42
683.97	1650.66
684.16	1675.24
684.35	1597.42
684.54	1740.77
684.73	1677.29
684.92	1652.71
685.11	1781.73
685.30	1736.68
685.49	1665.00
685.69	1802.21
685.88	1611.75
686.07	1679.33
686.26	1691.62
686.45	1732.58
686.64	1818.60
686.83	1683.43
687.02	1775.59
687.21	1763.30
687.40	1691.62
687.59	1828.84
687.78	1710.05
687.97	1746.92
688.16	1818.60
688.35	1689.57
688.54	1646.57
688.74	1597.42
688.93	1677.29
689.12	1624.04
689.31	1816.55
689.50	1771.49
689.69	1726.44
689.88	1730.53
690.07	1617.90
690.26	1726.44
690.45	1662.95
690.64	1693.67
690.83	1708.01
691.02	1724.39
691.21	1779.68
691.40	1710.05
691.59	1748.97
691.78	1820.64
691.97	1738.73
692.16	1648.61
692.35	1732.58
692.54	1708.01
692.73	1640.42
692.92	1748.97
693.11	1710.05
693.30	1738.73
693.49	1615.85
693.68	1814.50
693.87	1652.71
694.06	1654.76
694.25	1591.27
694.44	1597.42
694.63	1669.09
694.82	1607.66
695.01	1738.73
695.20	1736.68
695.39	1695.72
695.58	1775.59
695.77	1613.80
695.96	1724.39
696.15	1720.29
696.34	1742.82
696.53	1687.53
696.72	1744.87
696.91	1683.43
697.10	1705.96
697.29	1710.05
697.48	1820.64
697.67	1783.78
697.86	1724.39
698.05	1638.38
698.24	1744.87
698.43	1718.25
698.62	1628.14
698.81	1716.20
699.00	1740.77
699.19	1681.38
699.38	1712.10
699.57	1648.61
699.76	1849.32
699.95	1638.38
700.14	1648.61
700.32	1738.73
700.51	1724.39
700.70	1609.70
700.89	1794.02
701.08	1771.49
701.27	1683.43
701.46	1787.88
701.65	1722.34
701.84	1613.80
702.03	1689.57
702.22	1748.97
702.41	1740.77
702.60	1740.77
702.79	1685.48
702.98	1675.24
703.17	1728.49
703.35	1720.29
703.54	1667.05
703.73	1679.33
703.92	1697.77
704.11	1687.53
704.30	1751.01
704.49	1746.92
704.68	1712.10
704.87	1695.72
705.06	1753.06
705.25	1669.09
705.43	1679.33
705.62	1673.19
705.81	1806.31
706.00	1730.53
706.19	1710.05
706.38	1654.76
706.57	1751.01
706.76	1683.43
706.95	1722.34
707.14	1796.07
707.32	1697.77
707.51	1722.34
707.70	1632.23
707.89	1710.05
708.08	1634.28
708.27	1669.09
708.46	1662.95
708.65	1583.08
708.84	1667.05
709.02	1687.53
709.21	1615.85
709.40	1757.16
709.59	1775.59
709.78	1738.73
709.97	1679.33
710.16	1683.43
710.34	1736.68
710.53	1628.14
710.72	1626.09
710.91	1746.92
711.10	1599.46
711.29	1691.62
711.48	1718.25
711.66	1656.81
711.85	1642.47
712.04	1732.58
712.23	1677.29
712.42	1673.19
712.61	1777.64
712.80	1667.05
712.98	1738.73
713.17	1667.05
713.36	1738.73
713.55	1777.64
713.74	1726.44
713.93	1695.72
714.11	1667.05
714.30	1568.74
714.49	1787.88
714.68	1687.53
714.87	1578.98
715.06	1759.21
715.24	1746.92
715.43	1667.05
715.62	1685.48
715.81	1660.90
716.00	1697.77
716.18	1624.04
716.37	1730.53
716.56	1542.12
716.75	1679.33
716.94	1742.82
717.12	1761.25
717.31	1685.48
717.50	1652.71
717.69	1728.49
717.88	1740.77
718.06	1671.14
718.25	1695.72
718.44	1591.27
718.63	1759.21
718.82	1642.47
719.00	1587.18
719.19	1814.50
719.38	1599.46
719.57	1699.81
719.76	1732.58
719.94	1734.63
720.13	1724.39
720.32	1757.16
720.51	1665.00
720.69	1847.27
720.88	1718.25
721.07	1683.43
721.26	1763.30
721.44	1763.30
721.63	1777.64
721.82	1675.24
722.01	1736.68
722.20	1714.15
722.38	1693.67
722.57	1572.84
722.76	1683.43
722.95	1669.09
723.13	1675.24
723.32	1665.00
723.51	1712.10
723.70	1755.11
723.88	1724.39
724.07	1611.75
724.26	1722.34
724.44	1703.91
724.63	1775.59
724.82	1740.77
725.01	1703.91
725.19	1673.19
725.38	1685.48
725.57	1714.15
725.76	1732.58
725.94	1658.85
726.13	1693.67
726.32	1585.13
726.51	1689.57
726.69	1609.70
726.88	1681.38
727.07	1763.30
727.25	1632.23
727.44	1628.14
727.63	1624.04
727.82	1601.51
728.00	1761.25
728.19	1691.62
728.38	1685.48
728.56	1650.66
728.75	1693.67
728.94	1742.82
729.12	1714.15
729.31	1710.05
729.50	1658.85
729.69	1800.16
729.87	1638.38
730.06	1658.85
730.25	1714.15
730.43	1736.68
730.62	1660.90
730.81	1658.85
730.99	1650.66
731.18	1693.67
731.37	1726.44
731.55	1689.57
731.74	1728.49
731.93	1703.91
732.11	1646.57
732.30	1642.47
732.49	1761.25
732.67	1648.61
732.86	1587.18
733.05	1658.85
733.23	1714.15
733.42	1601.51
733.61	1697.77
733.79	1736.68
733.98	1777.64
734.17	1628.14
734.35	1724.39
734.54	1646.57
734.73	1775.59
734.91	1552.36
735.10	1699.81
735.29	1705.96
735.47	1593.32
735.66	1644.52
735.84	1773.54
736.03	1685.48
736.22	1646.57
736.40	1662.95
736.59	1519.59
736.78	1630.18
736.96	1656.81
737.15	1685.48
737.33	1716.20
737.52	1734.63
737.71	1740.77
737.89	1673.19
738.08	1658.85
738.27	1730.53
738.45	1699.81
738.64	1597.42
738.82	1691.62
739.01	1638.38
739.20	1748.97
739.38	1646.57
739.57	1716.20
739.75	1724.39
739.94	1753.06
740.13	1673.19
740.31	1761.25
740.50	1695.72
740.68	1615.85
740.87	1665.00
741.06	1771.49
741.24	1671.14
741.43	1675.24
741.61	1681.38
741.80	1703.91
741.99	1681.38
742.17	1777.64
742.36	1531.88
742.54	1662.95
742.73	1718.25
742.91	1732.58
743.10	1708.01
743.29	1658.85
743.47	1785.83
743.66	1540.07
743.84	1728.49
744.03	1740.77
744.21	1621.99
744.40	1755.11
744.59	1701.86
744.77	1687.53
744.96	1814.50
745.14	1699.81
745.33	1796.07
745.51	1755.11
745.70	1656.81
745.88	1773.54
746.07	1624.04
746.26	1689.57
746.44	1638.38
746.63	1542.12
746.81	1665.00
747.00	1732.58
747.18	1736.68
747.37	1699.81
747.55	1753.06
747.74	1945.57
747.92	1621.99
748.11	1656.81
748.29	1675.24
748.48	1687.53
748.66	1581.03
748.85	1671.14
749.03	1757.16
749.22	1673.19
749.41	1597.42
749.59	1691.62
749.78	1652.71
749.96	1611.75
750.15	1697.77
750.33	1873.89
750.52	1611.75
750.70	1699.81
750.89	1716.20
751.07	1671.14
751.26	1728.49
751.44	1574.89
751.63	1744.87
751.81	1628.14
752.00	1628.14
752.18	1716.20
752.37	1765.35
752.55	1597.42
752.74	1669.09
752.92	1691.62
753.10	1662.95
753.29	1673.19
753.47	1667.05
753.66	1589.22
753.84	1632.23
754.03	1621.99
754.21	1753.06
754.40	1611.75
754.58	1767.40
754.77	1773.54
754.95	1617.90
755.14	1665.00
755.32	1671.14
755.51	1621.99
755.69	1660.90
755.88	1589.22
756.06	1720.29
756.24	1658.85
756.43	1771.49
756.61	1728.49
756.80	1689.57
756.98	1681.38
757.17	1693.67
757.35	1695.72
757.54	1769.44
757.72	1619.94
757.90	1636.33
758.09	1703.91
758.27	1650.66
758.46	1658.85
758.64	1716.20
758.83	1708.01
759.01	1759.21
759.19	1693.67
759.38	1703.91
759.56	1697.77
759.75	1611.75
759.93	1644.52
760.12	1662.95
760.30	1560.55
760.48	1628.14
760.67	1671.14
760.85	1609.70
761.04	1605.61
761.22	1779.68
761.40	1683.43
761.59	1667.05
761.77	1710.05
761.96	1703.91
762.14	1705.96
762.32	1744.87
762.51	1667.05
762.69	1679.33
762.88	1691.62
763.06	1687.53
763.24	1648.61
763.43	1679.33
763.61	1611.75
763.80	1703.91
763.98	1742.82
764.16	1619.94
764.35	1533.93
764.53	1654.76
764.72	1718.25
764.90	1632.23
765.08	1710.05
765.27	1787.88
765.45	1732.58
765.63	1652.71
765.82	1708.01
766.00	1613.80
766.18	1642.47
766.37	1652.71
766.55	1652.71
766.74	1716.20
766.92	1658.85
767.10	1656.81
767.29	1830.88
767.47	1656.81
767.65	1724.39
767.84	1720.29
768.02	1753.06
768.20	1712.10
768.39	1624.04
768.57	1636.33
768.75	1669.09
768.94	1777.64
769.12	1597.42
769.30	1691.62
769.49	1642.47
769.67	1621.99
769.85	1822.69
770.04	1593.32
770.22	1636.33
770.40	1695.72
770.59	1683.43
770.77	1757.16
770.95	1662.95
771.14	1753.06
771.32	1667.05
771.50	1603.56
771.69	1589.22
771.87	1669.09
772.05	1693.67
772.24	1574.89
772.42	1712.10
772.60	1646.57
772.78	1765.35
772.97	1564.65
773.15	1708.01
773.33	1708.01
773.52	1626.09
773.70	1638.38
773.88	1658.85
774.07	1667.05
774.25	1621.99
774.43	1648.61
774.61	1740.77
774.80	1683.43
774.98	1732.58
775.16	1685.48
775.34	1710.05
775.53	1751.01
775.71	1691.62
775.89	1699.81
776.08	1646.57
776.26	1656.81
776.44	1652.71
776.62	1728.49
776.81	1601.51
776.99	1773.54
777.17	1687.53
777.35	1734.63
777.54	1677.29
777.72	1669.09
777.90	1632.23
778.08	1652.71
778.27	1705.96
778.45	1656.81
778.63	1667.05
778.81	1644.52
779.00	1718.25
779.18	1609.70
779.36	1736.68
779.54	1714.15
779.73	1773.54
779.91	1665.00
780.09	1665.00
780.27	1634.28
780.46	1626.09
780.64	1607.66
780.82	1705.96
781.00	1650.66
781.19	1591.27
781.37	1687.53
781.55	1759.21
781.73	1662.95
781.91	1703.91
782.10	1781.73
782.28	1769.44
782.46	1665.00
782.64	1691.62
782.82	1787.88
783.01	1681.38
783.19	1683.43
783.37	1687.53
783.55	1603.56
783.74	1724.39
783.92	1621.99
784.10	1710.05
784.28	1658.85
784.46	1675.24
784.64	1613.80
784.83	1689.57
785.01	1789.92
785.19	1763.30
785.37	1767.40
785.55	1613.80
785.74	1699.81
785.92	1654.76
786.10	1665.00
786.28	1855.46
786.46	1753.06
786.64	1617.90
786.83	1648.61
787.01	1800.16
787.19	1744.87
787.37	1638.38
787.55	1701.86
787.74	1658.85
787.92	1699.81
788.10	1675.24
788.28	1738.73
788.46	1685.48
788.64	1826.79
788.82	1648.61
789.01	1636.33
789.19	1691.62
789.37	1728.49
789.55	1697.77
789.73	1691.62
789.91	1689.57
790.09	1699.81
790.28	1685.48
790.46	1644.52
790.64	1669.09
790.82	1646.57
791.00	1687.53
791.18	1685.48
791.36	1703.91
791.55	1654.76
791.73	1712.10
791.91	1597.42
792.09	1691.62
792.27	1595.37
792.45	1738.73
792.63	1703.91
792.81	1642.47
793.00	1685.48
793.18	1671.14
793.36	1720.29
793.54	1703.91
793.72	1708.01
793.90	1660.90
794.08	1621.99
794.26	1634.28
794.44	1546.22
794.62	1634.28
794.81	1597.42
794.99	1652.71
795.17	1726.44
795.35	1589.22
795.53	1691.62
795.71	1673.19
795.89	1593.32
796.07	1654.76
796.25	1699.81
796.43	1736.68
796.61	1669.09
796.80	1685.48
796.98	1689.57
797.16	1728.49
797.34	1669.09
797.52	1621.99
797.70	1759.21
797.88	1724.39
798.06	1648.61
798.24	1718.25
798.42	1708.01
798.60	1701.86
798.78	1595.37
798.96	1744.87
799.14	1591.27
799.32	1736.68
799.51	1662.95
799.69	1796.07
799.87	1841.12
800.05	1662.95
800.23	1548.26
800.41	1687.53
800.59	1671.14
800.77	1665.00
800.95	1562.60
801.13	1691.62
801.31	1710.05
801.49	1753.06
801.67	1628.14
801.85	1628.14
802.03	1634.28
802.21	1701.86
802.39	1593.32
802.57	1683.43
802.75	1736.68
802.93	1722.34
803.11	1677.29
803.29	1765.35
803.47	1728.49
803.65	1609.70
803.83	1630.18
804.01	1648.61
804.19	1720.29
804.37	1638.38
804.55	1654.76
804.73	1759.21
804.91	1648.61
805.09	1673.19
805.27	1744.87
805.45	1675.24
805.63	1683.43
805.81	1740.77
805.99	1703.91
806.17	1685.48
806.35	1513.45
806.53	1628.14
806.71	1728.49
806.89	1615.85
807.07	1669.09
807.25	1773.54
807.43	1587.18
807.61	1740.77
807.79	1642.47
807.97	1640.42
808.15	1660.90
808.33	1656.81
808.51	1634.28
808.69	1617.90
808.87	1605.61
809.05	1626.09
809.23	1660.90
809.41	1609.70
809.59	1583.08
809.77	1691.62
809.95	1701.86
810.13	1744.87
810.31	1646.57
810.49	1710.05
810.67	1636.33
810.84	1685.48
811.02	1710.05
811.20	1665.00
811.38	1701.86
811.56	1636.33
811.74	1644.52
811.92	1630.18
812.10	1658.85
812.28	1810.40
812.46	1695.72
812.64	1673.19
812.82	1646.57
813.00	1626.09
813.18	1593.32
813.36	1714.15
813.53	1732.58
813.71	1804.26
813.89	1712.10
814.07	1611.75
814.25	1720.29
814.43	1587.18
814.61	1593.32
814.79	1654.76
814.97	1691.62
815.15	1689.57
815.33	1679.33
815.50	1617.90
815.68	1624.04
815.86	1722.34
816.04	1705.96
816.22	1667.05
816.40	1740.77
816.58	1665.00
816.76	1656.81
816.94	1642.47
817.11	1630.18
817.29	1658.85
817.47	1601.51
817.65	1632.23
817.83	1687.53
818.01	1613.80
818.19	1578.98
818.37	1654.76
818.54	1712.10
818.72	1689.57
818.90	1767.40
819.08	1642.47
819.26	1673.19
819.44	1753.06
819.62	1677.29
819.80	1603.56
819.97	1808.36
820.15	1673.19
820.33	1640.42
820.51	1630.18
820.69	1638.38
820.87	1771.49
821.05	1730.53
821.22	1648.61
821.40	1662.95
821.58	1675.24
821.76	1660.90
821.94	1619.94
822.12	1617.90
822.29	1675.24
822.47	1654.76
822.65	1691.62
822.83	1662.95
823.01	1615.85
823.19	1642.47
823.36	1656.81
823.54	1650.66
823.72	1681.38
823.90	1714.15
824.08	1626.09
824.25	1638.38
824.43	1667.05
824.61	1591.27
824.79	1636.33
824.97	1634.28
825.15	1691.62
825.32	1654.76
825.50	1683.43
825.68	1599.46
825.86	1673.19
826.04	1538.02
826.21	1683.43
826.39	1617.90
826.57	1691.62
826.75	1677.29
826.93	1742.82
827.10	1642.47
827.28	1640.42
827.46	1669.09
827.64	1689.57
827.81	1695.72
827.99	1687.53
828.17	1675.24
828.35	1660.90
828.53	1656.81
828.70	1681.38
828.88	1624.04
829.06	1593.32
829.24	1677.29
829.41	1626.09
829.59	1705.96
829.77	1705.96
829.95	1644.52
830.12	1605.61
830.30	1630.18
830.48	1630.18
830.66	1654.76
830.84	1640.42
831.01	1742.82
831.19	1587.18
831.37	1732.58
831.55	1646.57
831.72	1701.86
831.90	1673.19
832.08	1603.56
832.25	1722.34
832.43	1742.82
832.61	1736.68
832.79	1603.56
832.96	1736.68
833.14	1712.10
833.32	1744.87
833.50	1597.42
833.67	1613.80
833.85	1556.46
834.03	1578.98
834.20	1693.67
834.38	1777.64
834.56	1660.90
834.74	1615.85
834.91	1642.47
835.09	1703.91
835.27	1593.32
835.44	1609.70
835.62	1650.66
835.80	1656.81
835.98	1626.09
836.15	1744.87
836.33	1638.38
836.51	1607.66
836.68	1621.99
836.86	1599.46
837.04	1699.81
837.21	1757.16
837.39	1699.81
837.57	1789.92
837.75	1650.66
837.92	1642.47
838.10	1560.55
838.28	1650.66
838.45	1671.14
838.63	1581.03
838.81	1759.21
838.98	1662.95
839.16	1783.78
839.34	1617.90
839.51	1574.89
839.69	1613.80
839.87	1576.94
840.04	1699.81
840.22	1941.47
840.40	1685.48
840.57	1609.70
840.75	1605.61
840.93	1589.22
841.10	1636.33
841.28	1777.64
841.46	1644.52
841.63	1695.72
841.81	1615.85
841.98	1628.14
842.16	1759.21
842.34	1617.90
842.51	1556.46
842.69	1685.48
842.87	1589.22
843.04	1599.46
843.22	1665.00
843.40	1601.51
843.57	1636.33
843.75	1644.52
843.92	1540.07
844.10	1804.26
844.28	1697.77
844.45	1617.90
844.63	1726.44
844.81	1683.43
844.98	1730.53
845.16	1685.48
845.33	1677.29
845.51	1572.84
845.69	1734.63
845.86	1726.44
846.04	1607.66
846.21	1654.76
846.39	1540.07
846.57	1609.70
846.74	1644.52
846.92	1779.68
847.09	1607.66
847.27	1605.61
847.45	1599.46
847.62	1626.09
847.80	1648.61
847.97	1644.52
848.15	1679.33
848.32	1626.09
848.50	1695.72
848.68	1632.23
848.85	1646.57
849.03	1564.65
849.20	1624.04
849.38	1576.94
849.56	1671.14
849.73	1585.13
849.91	1638.38
850.08	1771.49
850.26	1501.16
850.43	1605.61
850.61	1789.92
850.78	1572.84
850.96	1675.24
851.14	1599.46
851.31	1861.60
851.49	1728.49
851.66	1646.57
851.84	1546.22
852.01	1638.38
852.19	1640.42
852.36	1677.29
852.54	1628.14
852.71	1605.61
852.89	1759.21
853.07	1624.04
853.24	1648.61
853.42	1615.85
853.59	1591.27
853.77	1568.74
853.94	1669.09
854.12	1724.39
854.29	1570.79
854.47	1691.62
854.64	1671.14
854.82	1621.99
854.99	1685.48
855.17	1675.24
855.34	1566.70
855.52	1691.62
855.69	1744.87
855.87	1558.50
856.04	1705.96
856.22	1665.00
856.39	1634.28
856.57	1658.85
856.74	1667.05
856.92	1697.77
857.09	1583.08
857.27	1632.23
857.44	1687.53
857.62	1708.01
857.79	1677.29
857.97	1667.05
858.14	1583.08
858.32	1699.81
858.49	1597.42
858.67	1685.48
858.84	1638.38
859.02	1699.81
859.19	1634.28
859.37	1535.98
859.54	1636.33
859.72	1665.00
859.89	1671.14
860.06	1630.18
860.24	1652.71
860.41	1787.88
860.59	1607.66
860.76	1634.28
860.94	1531.88
861.11	1697.77
861.29	1753.06
861.46	1578.98
861.64	1601.51
861.81	1720.29
861.98	1613.80
862.16	1615.85
862.33	1564.65
862.51	1556.46
862.68	1652.71
862.86	1613.80
863.03	1601.51
863.21	1642.47
863.38	1613.80
863.55	1630.18
863.73	1693.67
863.90	1654.76
864.08	1658.85
864.25	1613.80
864.43	1665.00
864.60	1671.14
864.77	1597.42
864.95	1683.43
865.12	1636.33
865.30	1665.00
865.47	1644.52
865.64	1689.57
865.82	1691.62
865.99	1722.34
866.17	1644.52
866.34	1703.91
866.51	1529.83
866.69	1662.95
866.86	1777.64
867.04	1730.53
867.21	1662.95
867.38	1609.70
867.56	1640.42
867.73	1654.76
867.91	1736.68
868.08	1554.41
868.25	1628.14
868.43	1687.53
868.60	1699.81
868.78	1560.55
868.95	1583.08
869.12	1638.38
869.30	1583.08
869.47	1714.15
869.64	1660.90
869.82	1615.85
869.99	1667.05
870.16	1832.93
870.34	1626.09
870.51	1714.15
870.69	1529.83
870.86	1687.53
871.03	1669.09
871.21	1658.85
871.38	1730.53
871.55	1673.19
871.73	1589.22
871.90	1677.29
872.07	1603.56
872.25	1515.50
872.42	1595.37
872.59	1542.12
872.77	1644.52
872.94	1636.33
873.11	1601.51
873.29	1669.09
873.46	1636.33
873.63	1591.27
873.81	1630.18
873.98	1677.29
874.15	1630.18
874.33	1576.94
874.50	1699.81
874.67	1738.73
874.85	1560.55
875.02	1650.66
875.19	1593.32
875.37	1662.95
875.54	1558.50
875.71	1660.90
875.88	1710.05
876.06	1667.05
876.23	1716.20
876.40	1685.48
876.58	1624.04
876.75	1673.19
876.92	1640.42
877.10	1712.10
877.27	1703.91
877.44	1662.95
877.61	1615.85
877.79	1640.42
877.96	1693.67
878.13	1658.85
878.31	1619.94
878.48	1658.85
878.65	1746.92
878.82	1558.50
879.00	1593.32
879.17	1742.82
879.34	1648.61
879.51	1601.51
879.69	1654.76
879.86	1581.03
880.03	1632.23
880.21	1662.95
880.38	1654.76
880.55	1708.01
880.72	1701.86
880.90	1640.42
881.07	1642.47
881.24	1716.20
881.41	1523.69
881.59	1638.38
881.76	1699.81
881.93	1703.91
882.10	1652.71
882.28	1671.14
882.45	1718.25
882.62	1722.34
882.79	1624.04
882.96	1665.00
883.14	1619.94
883.31	1705.96
883.48	1593.32
883.65	1675.24
883.83	1675.24
884.00	1568.74
884.17	1705.96
884.34	1675.24
884.51	1691.62
884.69	1662.95
884.86	1599.46
885.03	1630.18
885.20	1560.55
885.38	1617.90
885.55	1685.48
885.72	1781.73
885.89	1560.55
886.06	1652.71
886.24	1593.32
886.41	1599.46
886.58	1703.91
886.75	1673.19
886.92	1654.76
887.10	1581.03
887.27	1652.71
887.44	1701.86
887.61	1716.20
887.78	1687.53
887.95	1671.14
888.13	1609.70
888.30	1652.71
888.47	1667.05
888.64	1658.85
888.81	1675.24
888.99	1513.45
889.16	1662.95
889.33	1619.94
889.50	1658.85
889.67	1652.71
889.84	1576.94
890.01	1716.20
890.19	1722.34
890.36	1714.15
890.53	1615.85
890.70	1665.00
890.87	1601.51
891.04	1615.85
891.22	1650.66
891.39	1609.70
891.56	1689.57
891.73	1636.33
891.90	1613.80
892.07	1570.79
892.24	1789.92
892.42	1597.42
892.59	1667.05
892.76	1744.87
892.93	1591.27
893.10	1621.99
893.27	1718.25
893.44	1538.02
893.61	1648.61
893.79	1693.67
893.96	1638.38
894.13	1648.61
894.30	1626.09
894.47	1720.29
894.64	1675.24
894.81	1624.04
894.98	1570.79
895.15	1683.43
895.33	1720.29
895.50	1626.09
895.67	1589.22
895.84	1619.94
896.01	1595.37
896.18	1503.21
896.35	1777.64
896.52	1656.81
896.69	1576.94
896.86	1599.46
897.04	1685.48
897.21	1640.42
897.38	1662.95
897.55	1605.61
897.72	1669.09
897.89	1591.27
898.06	1691.62
898.23	1548.26
898.40	1675.24
898.57	1613.80
898.74	1599.46
898.91	1667.05
899.08	1646.57
899.26	1621.99
899.43	1703.91
899.60	1568.74
899.77	1630.18
899.94	1642.47
900.11	1640.42
900.28	1683.43
900.45	1628.14
900.62	1587.18
900.79	1646.57
900.96	1646.57
901.13	1630.18
901.30	1591.27
901.47	1601.51
901.64	1599.46
901.81	1673.19
901.98	1591.27
902.15	1693.67
902.32	1640.42
902.49	1626.09
902.66	1724.39
902.83	1615.85
903.01	1597.42
903.18	1615.85
903.35	1576.94
903.52	1744.87
903.69	1648.61
903.86	1601.51
904.03	1654.76
904.20	1703.91
904.37	1689.57
904.54	1644.52
904.71	1583.08
904.88	1654.76
905.05	1603.56
905.22	1691.62
905.39	1546.22
905.56	1630.18
905.73	1550.31
905.90	1640.42
906.07	1634.28
906.24	1689.57
906.41	1619.94
906.58	1667.05
906.75	1558.50
906.92	1531.88
907.09	1658.85
907.26	1689.57
907.43	1613.80
907.60	1699.81
907.77	1693.67
907.93	1650.66
908.10	1665.00
908.27	1724.39
908.44	1638.38
908.61	1503.21
908.78	1699.81
908.95	1679.33
909.12	1626.09
909.29	1617.90
909.46	1638.38
909.63	1728.49
909.80	1576.94
909.97	1638.38
910.14	1679.33
910.31	1667.05
910.48	1644.52
910.65	1621.99
910.82	1669.09
910.99	1691.62
911.16	1595.37
911.33	1628.14
911.50	1695.72
911.66	1605.61
911.83	1632.23
912.00	1591.27
912.17	1497.07
912.34	1619.94
912.51	1638.38
912.68	1626.09
912.85	1632.23
913.02	1652.71
913.19	1636.33
913.36	1644.52
913.53	1757.16
913.70	1591.27
913.86	1834.98
914.03	1701.86
914.20	1710.05
914.37	1634.28
914.54	1601.51
914.71	1689.57
914.88	1695.72
915.05	1556.46
915.22	1609.70
915.39	1589.22
915.55	1712.10
915.72	1558.50
915.89	1613.80
916.06	1587.18
916.23	1677.29
916.40	1642.47
916.57	1613.80
916.74	1646.57
916.91	1638.38
917.07	1597.42
917.24	1589.22
917.41	1640.42
917.58	1705.96
917.75	1632.23
917.92	1548.26
918.09	1658.85
918.26	1640.42
918.42	1554.41
918.59	1630.18
918.76	1603.56
918.93	1603.56
919.10	1568.74
919.27	1656.81
919.44	1783.78
919.60	1650.66
919.77	1638.38
919.94	1609.70
920.11	1626.09
920.28	1751.01
920.45	1652.71
920.61	1568.74
920.78	1609.70
920.95	1744.87
921.12	1656.81
921.29	1546.22
921.46	1607.66
921.62	1619.94
921.79	1716.20
921.96	1695.72
922.13	1642.47
922.30	1689.57
922.47	1667.05
922.63	1675.24
922.80	1732.58
922.97	1599.46
923.14	1540.07
923.31	1587.18
923.47	1726.44
923.64	1746.92
923.81	1601.51
923.98	1714.15
924.15	1585.13
924.32	1630.18
924.48	1699.81
924.65	1765.35
924.82	1548.26
924.99	1665.00
925.15	1552.36
925.32	1771.49
925.49	1689.57
925.66	1562.60
925.83	1705.96
925.99	1607.66
926.16	1640.42
926.33	1630.18
926.50	1613.80
926.67	1656.81
926.83	1712.10
927.00	1662.95
927.17	1650.66
927.34	1560.55
927.50	1748.97
927.67	1820.64
927.84	1755.11
928.01	1716.20
928.17	1675.24
928.34	1568.74
928.51	1601.51
928.68	1626.09
928.84	1619.94
929.01	1640.42
929.18	1609.70
929.35	1630.18
929.51	1662.95
929.68	1642.47
929.85	1677.29
930.02	1599.46
930.18	1634.28
930.35	1642.47
930.52	1689.57
930.69	1683.43
930.85	1736.68
931.02	1621.99
931.19	1638.38
931.36	1605.61
931.52	1660.90
931.69	1617.90
931.86	1624.04
932.02	1626.09
932.19	1615.85
932.36	1638.38
932.53	1626.09
932.69	1613.80
932.86	1753.06
933.03	1583.08
933.19	1517.54
933.36	1626.09
933.53	1703.91
933.70	1683.43
933.86	1710.05
934.03	1736.68
934.20	1617.90
934.36	1806.31
934.53	1546.22
934.70	1597.42
934.86	1665.00
935.03	1624.04
935.20	1630.18
935.36	1599.46
935.53	1587.18
935.70	1665.00
935.86	1748.97
936.03	1531.88
936.20	1564.65
936.36	1611.75
936.53	1560.55
936.70	1605.61
936.86	1843.17
937.03	1652.71
937.20	1597.42
937.36	1789.92
937.53	1589.22
937.70	1570.79
937.86	1603.56
938.03	1667.05
938.20	1740.77
938.36	1585.13
938.53	1619.94
938.70	1550.31
938.86	1675.24
939.03	1710.05
939.20	1628.14
939.36	1611.75
939.53	1642.47
939.70	1912.80
939.86	1634.28
940.03	1603.56
940.19	1617.90
940.36	1630.18
940.53	1640.42
940.69	1630.18
940.86	1683.43
941.03	1630.18
941.19	1517.54
941.36	1621.99
941.52	1738.73
941.69	1638.38
941.86	1708.01
942.02	1720.29
942.19	1662.95
942.35	1677.29
942.52	1673.19
942.69	1609.70
942.85	1722.34
943.02	1628.14
943.18	1630.18
943.35	1621.99
943.52	1626.09
943.68	1548.26
943.85	1675.24
944.01	1671.14
944.18	1691.62
944.35	1667.05
944.51	1597.42
944.68	1574.89
944.84	1634.28
945.01	1638.38
945.17	1619.94
945.34	1642.47
945.51	1699.81
945.67	1632.23
945.84	1658.85
946.00	1640.42
946.17	1632.23
946.33	1576.94
946.50	1705.96
946.67	1648.61
946.83	1642.47
947.00	1654.76
947.16	1636.33
947.33	1628.14
947.49	1611.75
947.66	1552.36
947.82	1705.96
947.99	1540.07
948.16	1619.94
948.32	1648.61
948.49	1681.38
948.65	1607.66
948.82	1642.47
948.98	1689.57
949.15	1671.14
949.31	1703.91
949.48	1687.53
949.64	1546.22
949.81	1624.04
949.97	1681.38
950.14	1695.72
950.30	1507.30
950.47	1609.70
950.63	1558.50
950.80	1638.38
950.96	1560.55
951.13	1632.23
951.30	1613.80
951.46	1656.81
951.63	1710.05
951.79	1638.38
951.96	1703.91
952.12	1609.70
952.29	1708.01
952.45	1624.04
952.62	1574.89
952.78	1617.90
952.94	1591.27
953.11	1636.33
953.27	1583.08
953.44	1720.29
953.60	1599.46
953.77	1667.05
953.93	1589.22
954.10	1685.48
954.26	1654.76
954.43	1597.42
954.59	1642.47
954.76	1724.39
954.92	1660.90
955.09	1634.28
955.25	1583.08
955.42	1652.71
955.58	1673.19
955.75	1630.18
955.91	1560.55
956.07	1662.95
956.24	1689.57
956.40	1601.51
956.57	1581.03
956.73	1593.32
956.90	1699.81
957.06	1605.61
957.23	1615.85
957.39	1673.19
957.56	1683.43
957.72	1515.50
957.88	1552.36
958.05	1755.11
958.21	1636.33
958.38	1681.38
958.54	1585.13
958.71	1667.05
958.87	1648.61
959.03	1638.38
959.20	1714.15
959.36	1509.35
959.53	1595.37
959.69	1550.31
959.85	1703.91
960.02	1550.31
960.18	1609.70
960.35	1544.17
960.51	1705.96
960.68	1595.37
960.84	1679.33
961.00	1546.22
961.17	1578.98
961.33	1607.66
961.50	1644.52
961.66	1675.24
961.82	1585.13
961.99	1624.04
962.15	1640.42
962.31	1605.61
962.48	1693.67
962.64	1669.09
962.81	1665.00
962.97	1603.56
963.13	1658.85
963.30	1603.56
963.46	1644.52
963.62	1605.61
963.79	1617.90
963.95	1626.09
964.12	1630.18
964.28	1724.39
964.44	1628.14
964.61	1736.68
964.77	1665.00
964.93	1742.82
965.10	1630.18
965.26	1488.87
965.42	1652.71
965.59	1538.02
965.75	1642.47
965.92	1658.85
966.08	1740.77
966.24	1605.61
966.41	1597.42
966.57	1613.80
966.73	1650.66
966.90	1564.65
967.06	1630.18
967.22	1609.70
967.39	1640.42
967.55	1576.94
967.71	1640.42
967.88	1658.85
968.04	1634.28
968.20	1613.80
968.37	1609.70
968.53	1632.23
968.69	1650.66
968.85	1681.38
969.02	1636.33
969.18	1708.01
969.34	1628.14
969.51	1689.57
969.67	1732.58
969.83	1603.56
970.00	1744.87
970.16	1710.05
970.32	1617.90
970.48	1773.54
970.65	1642.47
970.81	1617.90
970.97	1699.81
971.14	1521.64
971.30	1695.72
971.46	1603.56
971.63	1621.99
971.79	1722.34
971.95	1691.62
972.11	1636.33
972.28	1593.32
972.44	1675.24
972.60	1550.31
972.76	1726.44
972.93	1667.05
973.09	1601.51
973.25	1677.29
973.42	1585.13
973.58	1693.67
973.74	1583.08
973.90	1693.67
974.07	1665.00
974.23	1640.42
974.39	1603.56
974.55	1607.66
974.72	1665.00
974.88	1531.88
975.04	1634.28
975.20	1591.27
975.37	1679.33
975.53	1677.29
975.69	1662.95
975.85	1568.74
976.01	1578.98
976.18	1613.80
976.34	1646.57
976.50	1712.10
976.66	1714.15
976.83	1548.26
976.99	1585.13
977.15	1646.57
977.31	1607.66
977.47	1669.09
977.64	1687.53
977.80	1607.66
977.96	1701.86
978.12	1630.18
978.29	1605.61
978.45	1595.37
978.61	1599.46
978.77	1677.29
978.93	1671.14
979.10	1619.94
979.26	1609.70
979.42	1714.15
979.58	1531.88
979.74	1484.78
979.91	1689.57
980.07	1617.90
980.23	1642.47
980.39	1607.66
980.55	1613.80
980.71	1562.60
980.88	1558.50
981.04	1640.42
981.20	1642.47
981.36	1621.99
981.52	1613.80
981.68	1546.22
981.85	1703.91
982.01	1562.60
982.17	1548.26
982.33	1572.84
982.49	1673.19
982.65	1550.31
982.82	1609.70
982.98	1617.90
983.14	1505.26
983.30	1636.33
983.46	1617.90
983.62	1683.43
983.79	1574.89
983.95	1609.70
984.11	1533.93
984.27	1630.18
984.43	1626.09
984.59	1619.94
984.75	1591.27
984.91	1591.27
985.08	1679.33
985.24	1517.54
985.40	1574.89
985.56	1658.85
985.72	1648.61
985.88	1619.94
986.04	1660.90
986.20	1597.42
986.37	1636.33
986.53	1585.13
986.69	1689.57
986.85	1540.07
987.01	1609.70
987.17	1658.85
987.33	1617.90
987.49	1548.26
987.65	1658.85
987.82	1619.94
987.98	1617.90
988.14	1632.23
988.30	1626.09
988.46	1617.90
988.62	1562.60
988.78	1589.22
988.94	1630.18
989.10	1548.26
989.26	1533.93
989.42	1626.09
989.59	1550.31
989.75	1683.43
989.91	1648.61
990.07	1593.32
990.23	1593.32
990.39	1632.23
990.55	1677.29
990.71	1624.04
990.87	1576.94
991.03	1638.38
991.19	1572.84
991.35	1568.74
991.51	1640.42
991.67	1650.66
991.83	1667.05
992.00	1667.05
992.16	1681.38
992.32	1585.13
992.48	1642.47
992.64	1621.99
992.80	1673.19
992.96	1644.52
993.12	1681.38
993.28	1656.81
993.44	1632.23
993.60	1648.61
993.76	1673.19
993.92	1535.98
994.08	1714.15
994.24	1648.61
994.40	1621.99
994.56	1654.76
994.72	1624.04
994.88	1531.88
995.04	1560.55
995.20	1554.41
995.36	1566.70
995.52	1732.58
995.68	1605.61
995.84	1615.85
996.00	1691.62
996.16	1546.22
996.32	1628.14
996.48	1535.98
996.64	1734.63
996.80	1593.32
996.96	1685.48
997.12	1650.66
997.28	1589.22
997.44	1562.60
997.60	1574.89
997.76	1650.66
997.92	1658.85
998.08	1632.23
998.24	1505.26
998.40	1632.23
998.56	1650.66
998.72	1556.46
998.88	1593.32
999.04	1585.13
999.20	1662.95
999.36	1599.46
999.52	1748.97
999.68	1628.14
999.84	1669.09
1000.00	1636.33
1000.16	1728.49
1000.32	1607.66
1000.48	1701.86
1000.64	1548.26
1000.80	1540.07
1000.95	1550.31
1001.11	1624.04
1001.27	1548.26
1001.43	1599.46
1001.59	1519.59
1001.75	1595.37
1001.91	1640.42
1002.07	1556.46
1002.23	1603.56
1002.39	1591.27
1002.55	1562.60
1002.71	1562.60
1002.87	1585.13
1003.03	1511.40
1003.19	1638.38
1003.34	1712.10
1003.50	1611.75
1003.66	1734.63
1003.82	1650.66
1003.98	1595.37
1004.14	1638.38
1004.30	1568.74
1004.46	1593.32
1004.62	1613.80
1004.78	1591.27
1004.94	1613.80
1005.09	1712.10
1005.25	1662.95
1005.41	1562.60
1005.57	1583.08
1005.73	1542.12
1005.89	1574.89
1006.05	1667.05
1006.21	1722.34
1006.37	1523.69
1006.52	1570.79
1006.68	1632.23
1006.84	1652.71
1007.00	1554.41
1007.16	1675.24
1007.32	1564.65
1007.48	1712.10
1007.64	1611.75
1007.79	1636.33
1007.95	1572.84
1008.11	1617.90
1008.27	1599.46
1008.43	1576.94
1008.59	1648.61
1008.75	1665.00
1008.91	1708.01
1009.06	1544.17
1009.22	1630.18
1009.38	1611.75
1009.54	1626.09
1009.70	1589.22
1009.86	1658.85
1010.01	1652.71
1010.17	1591.27
1010.33	1570.79
1010.49	1609.70
1010.65	1693.67
1010.81	1638.38
1010.96	1687.53
1011.12	1599.46
1011.28	1495.02
1011.44	1708.01
1011.60	1613.80
1011.76	1564.65
1011.91	1656.81
1012.07	1570.79
1012.23	1572.84
1012.39	1572.84
1012.55	1658.85
1012.71	1574.89
1012.86	1583.08
1013.02	1535.98
1013.18	1621.99
1013.34	1568.74
1013.50	1652.71
1013.65	1587.18
1013.81	1548.26
1013.97	1601.51
1014.13	1644.52
1014.29	1658.85
1014.44	1738.73
1014.60	1587.18
1014.76	1556.46
1014.92	1646.57
1015.07	1597.42
1015.23	1689.57
1015.39	1538.02
1015.55	1581.03
1015.71	1650.66
1015.86	1624.04
1016.02	1482.73
1016.18	1576.94
1016.34	1552.36
1016.49	1566.70
1016.65	1595.37
1016.81	1636.33
1016.97	1675.24
1017.12	1720.29
1017.28	1587.18
1017.44	1599.46
1017.60	1585.13
1017.75	1585.13
1017.91	1589.22
1018.07	1585.13
1018.23	1671.14
1018.38	1581.03
1018.54	1638.38
1018.70	1644.52
1018.86	1648.61
1019.01	1544.17
1019.17	1585.13
1019.33	1656.81
1019.49	1650.66
1019.64	1640.42
1019.80	1650.66
1019.96	1691.62
1020.12	1638.38
1020.27	1548.26
1020.43	1591.27
1020.59	1613.80
1020.74	1716.20
1020.90	1718.25
1021.06	1564.65
1021.22	1617.90
1021.37	1550.31
1021.53	1583.08
1021.69	1619.94
1021.84	1556.46
1022.00	1640.42
1022.16	1581.03
1022.31	1611.75
1022.47	1650.66
1022.63	1638.38
1022.79	1517.54
1022.94	1591.27
1023.10	1634.28
1023.26	1566.70
1023.41	1621.99
1023.57	1601.51
1023.73	1630.18
1023.88	1624.04
1024.04	1609.70
1024.20	1560.55
1024.35	1644.52
1024.51	1605.61
1024.67	1621.99
1024.82	1677.29
1024.98	1605.61
1025.14	1626.09
1025.29	1591.27
1025.45	1630.18
1025.61	1566.70
1025.76	1601.51
1025.92	1679.33
1026.08	1699.81
1026.23	1708.01
1026.39	1716.20
1026.55	1660.90
1026.70	1589.22
1026.86	1605.61
1027.02	1667.05
1027.17	1630.18
1027.33	1675.24
1027.48	1603.56
1027.64	1558.50
1027.80	1546.22
1027.95	1691.62
1028.11	1589.22
1028.27	1660.90
1028.42	1626.09
1028.58	1585.13
1028.73	1593.32
1028.89	1507.30
1029.05	1693.67
1029.20	1613.80
>>>>>End Processed Spectral Data<<<<<
