SpectraSuite Data File
++++++++++++++++++++++++++++++++++++
Date: Fri Jun 02 14:51:06 CEST 2017
User: INFO_000
Dark Spectrum Present: No
Reference Spectrum Present: No
Number of Sampled Component Spectra: 1
Spectrometers: USB4H00879
Integration Time (usec): 80000 (USB4H00879)
Spectra Averaged: 1 (USB4H00879)
Boxcar Smoothing: 0 (USB4H00879)
Correct for Electrical Dark: No (USB4H00879)
Strobe/Lamp Enabled: No (USB4H00879)
Correct for Detector Non-linearity: No (USB4H00879)
Correct for Stray Light: No (USB4H00879)
Number of Pixels in Processed Spectrum: 3648
>>>>>Begin Processed Spectral Data<<<<<
345.13	1345.52
345.34	1345.52
345.56	1345.52
345.78	1296.36
345.99	1257.45
346.21	1714.15
346.42	1718.25
346.64	1621.99
346.86	1804.26
347.07	1677.29
347.29	1671.14
347.50	1601.51
347.72	1609.70
347.94	1810.40
348.15	1560.55
348.37	1628.14
348.59	1685.48
348.80	1705.96
349.02	1714.15
349.23	1708.01
349.45	1708.01
349.67	1796.07
349.88	1628.14
350.10	1845.22
350.31	1720.29
350.53	1638.38
350.75	1902.56
350.96	1634.28
351.18	1734.63
351.39	1656.81
351.61	1681.38
351.82	1685.48
352.04	1748.97
352.26	1683.43
352.47	1767.40
352.69	1722.34
352.90	1599.46
353.12	1677.29
353.34	1675.24
353.55	1794.02
353.77	1718.25
353.98	1671.14
354.20	1679.33
354.41	1765.35
354.63	1734.63
354.85	1785.83
355.06	1695.72
355.28	1626.09
355.49	1716.20
355.71	1669.09
355.92	1677.29
356.14	1714.15
356.35	1744.87
356.57	1732.58
356.79	1662.95
357.00	1658.85
357.22	1716.20
357.43	1720.29
357.65	1740.77
357.86	1691.62
358.08	1675.24
358.29	1710.05
358.51	1773.54
358.72	1679.33
358.94	1669.09
359.16	1705.96
359.37	1642.47
359.59	1708.01
359.80	1837.03
360.02	1662.95
360.23	1728.49
360.45	1787.88
360.66	1667.05
360.88	1597.42
361.09	1621.99
361.31	1769.44
361.52	1748.97
361.74	1818.60
361.95	1855.46
362.17	1718.25
362.38	1798.12
362.60	1769.44
362.81	1746.92
363.03	1638.38
363.24	1722.34
363.46	1765.35
363.67	1765.35
363.89	1685.48
364.10	1693.67
364.32	1722.34
364.53	1773.54
364.75	1683.43
364.96	1701.86
365.18	1708.01
365.39	1712.10
365.61	1671.14
365.82	1830.88
366.04	1687.53
366.25	1697.77
366.47	1640.42
366.68	1732.58
366.90	1607.66
367.11	1753.06
367.33	1798.12
367.54	1761.25
367.76	1613.80
367.97	1804.26
368.19	1681.38
368.40	1771.49
368.62	1609.70
368.83	1587.18
369.05	1775.59
369.26	1595.37
369.48	1671.14
369.69	1644.52
369.91	1687.53
370.12	1628.14
370.33	1843.17
370.55	1617.90
370.76	1646.57
370.98	1730.53
371.19	1656.81
371.41	1740.77
371.62	1783.78
371.84	1703.91
372.05	1798.12
372.27	1652.71
372.48	1660.90
372.69	1644.52
372.91	1832.93
373.12	1806.31
373.34	1712.10
373.55	1751.01
373.77	1740.77
373.98	1724.39
374.20	1806.31
374.41	1873.89
374.62	1689.57
374.84	1759.21
375.05	1654.76
375.27	1736.68
375.48	1716.20
375.70	1652.71
375.91	1708.01
376.12	1834.98
376.34	1605.61
376.55	1687.53
376.77	1685.48
376.98	1621.99
377.19	1601.51
377.41	1617.90
377.62	1667.05
377.84	1734.63
378.05	1779.68
378.27	1671.14
378.48	1841.12
378.69	1871.84
378.91	1769.44
379.12	1744.87
379.34	1679.33
379.55	1847.27
379.76	1740.77
379.98	1646.57
380.19	1681.38
380.41	1671.14
380.62	1681.38
380.83	1703.91
381.05	1693.67
381.26	1802.21
381.47	1599.46
381.69	1679.33
381.90	1806.31
382.12	1744.87
382.33	1732.58
382.54	1673.19
382.76	1699.81
382.97	1689.57
383.19	1617.90
383.40	1714.15
383.61	1673.19
383.83	1679.33
384.04	1658.85
384.25	1753.06
384.47	1796.07
384.68	1697.77
384.89	1583.08
385.11	1603.56
385.32	1660.90
385.54	1679.33
385.75	1683.43
385.96	1613.80
386.18	1695.72
386.39	1763.30
386.60	1558.50
386.82	1732.58
387.03	1718.25
387.24	1755.11
387.46	1693.67
387.67	1646.57
387.88	1693.67
388.10	1705.96
388.31	1705.96
388.52	1767.40
388.74	1630.18
388.95	1642.47
389.16	1701.86
389.38	1675.24
389.59	1757.16
389.80	1773.54
390.02	1648.61
390.23	1771.49
390.44	1654.76
390.66	1683.43
390.87	1621.99
391.08	1699.81
391.30	1847.27
391.51	1744.87
391.72	1757.16
391.94	1714.15
392.15	1611.75
392.36	1746.92
392.58	1630.18
392.79	1724.39
393.00	1724.39
393.22	1724.39
393.43	1769.44
393.64	1806.31
393.85	1738.73
394.07	1679.33
394.28	1718.25
394.49	1761.25
394.71	1685.48
394.92	1751.01
395.13	1636.33
395.35	1685.48
395.56	1675.24
395.77	1673.19
395.98	1777.64
396.20	1763.30
396.41	1732.58
396.62	1736.68
396.84	1638.38
397.05	1658.85
397.26	1646.57
397.47	1726.44
397.69	1632.23
397.90	1943.52
398.11	1730.53
398.32	1675.24
398.54	1736.68
398.75	1667.05
398.96	1697.77
399.18	1820.64
399.39	1681.38
399.60	1720.29
399.81	1658.85
400.03	1667.05
400.24	1978.34
400.45	1658.85
400.66	1675.24
400.88	1718.25
401.09	1830.88
401.30	1761.25
401.51	1834.98
401.73	1806.31
401.94	1777.64
402.15	1646.57
402.36	1728.49
402.58	1703.91
402.79	1798.12
403.00	1720.29
403.21	1738.73
403.43	1740.77
403.64	1701.86
403.85	1675.24
404.06	1794.02
404.27	1601.51
404.49	1656.81
404.70	1638.38
404.91	1755.11
405.12	1771.49
405.34	1765.35
405.55	1796.07
405.76	1591.27
405.97	1716.20
406.19	1746.92
406.40	1712.10
406.61	1722.34
406.82	1687.53
407.03	1724.39
407.25	1748.97
407.46	1816.55
407.67	1718.25
407.88	1808.36
408.09	1644.52
408.31	1665.00
408.52	1722.34
408.73	1703.91
408.94	1703.91
409.15	1683.43
409.37	1775.59
409.58	1708.01
409.79	1654.76
410.00	1818.60
410.21	1652.71
410.43	1671.14
410.64	1566.70
410.85	1771.49
411.06	1714.15
411.27	1757.16
411.48	1771.49
411.70	1662.95
411.91	1789.92
412.12	1796.07
412.33	1746.92
412.54	1677.29
412.76	1716.20
412.97	1847.27
413.18	1656.81
413.39	1744.87
413.60	1730.53
413.81	1730.53
414.03	1650.66
414.24	1652.71
414.45	1900.52
414.66	1677.29
414.87	1669.09
415.08	1665.00
415.30	1703.91
415.51	1757.16
415.72	1716.20
415.93	1705.96
416.14	1740.77
416.35	1773.54
416.56	1720.29
416.78	1740.77
416.99	1699.81
417.20	1859.56
417.41	1728.49
417.62	1744.87
417.83	1746.92
418.04	1683.43
418.26	1701.86
418.47	1728.49
418.68	1814.50
418.89	1740.77
419.10	1904.61
419.31	1775.59
419.52	1697.77
419.73	1699.81
419.95	1732.58
420.16	1591.27
420.37	1693.67
420.58	1781.73
420.79	1650.66
421.00	1630.18
421.21	1695.72
421.42	1615.85
421.63	1675.24
421.85	1638.38
422.06	1691.62
422.27	1646.57
422.48	1693.67
422.69	1722.34
422.90	1667.05
423.11	1757.16
423.32	1773.54
423.53	1775.59
423.75	1695.72
423.96	1732.58
424.17	1738.73
424.38	1800.16
424.59	1691.62
424.80	1794.02
425.01	1744.87
425.22	1695.72
425.43	1740.77
425.64	1746.92
425.85	1738.73
426.06	1814.50
426.28	1716.20
426.49	1658.85
426.70	1662.95
426.91	1732.58
427.12	1593.32
427.33	1689.57
427.54	1714.15
427.75	1687.53
427.96	1665.00
428.17	1785.83
428.38	1658.85
428.59	1759.21
428.80	1683.43
429.01	1675.24
429.23	1652.71
429.44	1681.38
429.65	1818.60
429.86	1736.68
430.07	1669.09
430.28	1593.32
430.49	1757.16
430.70	1732.58
430.91	1802.21
431.12	1683.43
431.33	1685.48
431.54	1755.11
431.75	1695.72
431.96	1691.62
432.17	1685.48
432.38	1822.69
432.59	1759.21
432.80	1863.65
433.01	1671.14
433.22	1708.01
433.43	1724.39
433.64	1738.73
433.85	1837.03
434.06	1681.38
434.27	1695.72
434.49	1755.11
434.70	1783.78
434.91	1714.15
435.12	1730.53
435.33	1681.38
435.54	1697.77
435.75	1732.58
435.96	1642.47
436.17	1667.05
436.38	1761.25
436.59	1726.44
436.80	1687.53
437.01	1804.26
437.22	1699.81
437.43	1728.49
437.64	1671.14
437.85	1673.19
438.06	1740.77
438.27	1689.57
438.48	1699.81
438.69	1656.81
438.90	1724.39
439.11	1658.85
439.32	1794.02
439.53	1669.09
439.74	1646.57
439.95	1703.91
440.16	1617.90
440.37	1705.96
440.57	1634.28
440.78	1722.34
440.99	1695.72
441.20	1712.10
441.41	1548.26
441.62	1656.81
441.83	1638.38
442.04	1665.00
442.25	1617.90
442.46	1615.85
442.67	1632.23
442.88	1855.46
443.09	1662.95
443.30	1658.85
443.51	1652.71
443.72	1738.73
443.93	1693.67
444.14	1746.92
444.35	1710.05
444.56	1734.63
444.77	1662.95
444.98	1746.92
445.19	1720.29
445.40	1716.20
445.61	1601.51
445.81	1662.95
446.02	1814.50
446.23	1683.43
446.44	1640.42
446.65	1705.96
446.86	1775.59
447.07	1880.04
447.28	1703.91
447.49	1777.64
447.70	1646.57
447.91	1724.39
448.12	1699.81
448.33	1720.29
448.54	1640.42
448.74	1658.85
448.95	1673.19
449.16	1746.92
449.37	1785.83
449.58	1685.48
449.79	1787.88
450.00	1683.43
450.21	1679.33
450.42	1785.83
450.63	1576.94
450.84	1759.21
451.05	1722.34
451.25	1603.56
451.46	1679.33
451.67	1796.07
451.88	1677.29
452.09	1695.72
452.30	1646.57
452.51	1619.94
452.72	1730.53
452.93	1746.92
453.13	1634.28
453.34	1556.46
453.55	1648.61
453.76	1632.23
453.97	1650.66
454.18	1671.14
454.39	1757.16
454.60	1658.85
454.81	1732.58
455.01	1755.11
455.22	1609.70
455.43	1712.10
455.64	1746.92
455.85	1724.39
456.06	1685.48
456.27	1746.92
456.48	1697.77
456.68	1695.72
456.89	1724.39
457.10	1673.19
457.31	1671.14
457.52	1703.91
457.73	1728.49
457.94	1689.57
458.14	1621.99
458.35	1773.54
458.56	1773.54
458.77	1689.57
458.98	1644.52
459.19	1681.38
459.39	1671.14
459.60	1738.73
459.81	1744.87
460.02	1712.10
460.23	1671.14
460.44	1636.33
460.65	1615.85
460.85	1646.57
461.06	1636.33
461.27	1708.01
461.48	1626.09
461.69	1593.32
461.89	1576.94
462.10	1613.80
462.31	1650.66
462.52	1619.94
462.73	1585.13
462.94	1691.62
463.14	1656.81
463.35	1722.34
463.56	1802.21
463.77	1732.58
463.98	1593.32
464.18	1681.38
464.39	1781.73
464.60	1675.24
464.81	1597.42
465.02	1662.95
465.23	1773.54
465.43	1708.01
465.64	1548.26
465.85	1634.28
466.06	1712.10
466.27	1759.21
466.47	1716.20
466.68	1816.55
466.89	1617.90
467.10	1585.13
467.30	1667.05
467.51	1710.05
467.72	1734.63
467.93	1505.26
468.14	1632.23
468.34	1755.11
468.55	1712.10
468.76	1757.16
468.97	1746.92
469.17	1822.69
469.38	1830.88
469.59	1773.54
469.80	1748.97
470.01	1648.61
470.21	1757.16
470.42	1673.19
470.63	1734.63
470.84	1775.59
471.04	1650.66
471.25	1789.92
471.46	1628.14
471.67	1736.68
471.87	1642.47
472.08	1724.39
472.29	1654.76
472.50	1753.06
472.70	1697.77
472.91	1628.14
473.12	1593.32
473.33	1665.00
473.53	1781.73
473.74	1671.14
473.95	1679.33
474.16	1538.02
474.36	1593.32
474.57	1695.72
474.78	1658.85
474.99	1738.73
475.19	1669.09
475.40	1779.68
475.61	1789.92
475.81	1722.34
476.02	1685.48
476.23	1708.01
476.44	1654.76
476.64	1708.01
476.85	1681.38
477.06	1724.39
477.27	1644.52
477.47	1738.73
477.68	1626.09
477.89	1708.01
478.09	1779.68
478.30	1673.19
478.51	1701.86
478.71	1748.97
478.92	1726.44
479.13	1742.82
479.34	1630.18
479.54	1734.63
479.75	1695.72
479.96	1630.18
480.16	1613.80
480.37	1722.34
480.58	1683.43
480.78	1785.83
480.99	1587.18
481.20	1771.49
481.41	1742.82
481.61	1736.68
481.82	1832.93
482.03	1673.19
482.23	1718.25
482.44	1771.49
482.65	1832.93
482.85	1789.92
483.06	1744.87
483.27	1732.58
483.47	1738.73
483.68	1679.33
483.89	1689.57
484.09	1716.20
484.30	1705.96
484.51	1701.86
484.71	1578.98
484.92	1589.22
485.13	1728.49
485.33	1593.32
485.54	1599.46
485.75	1779.68
485.95	1800.16
486.16	1665.00
486.37	1753.06
486.57	1589.22
486.78	1699.81
486.98	1763.30
487.19	1675.24
487.40	1685.48
487.60	1632.23
487.81	1720.29
488.02	1634.28
488.22	1652.71
488.43	1767.40
488.64	1636.33
488.84	1675.24
489.05	1716.20
489.25	1728.49
489.46	1724.39
489.67	1734.63
489.87	1716.20
490.08	1660.90
490.29	1597.42
490.49	1839.08
490.70	1699.81
490.90	1687.53
491.11	1679.33
491.32	1724.39
491.52	1667.05
491.73	1679.33
491.94	1673.19
492.14	1640.42
492.35	1701.86
492.55	1804.26
492.76	1658.85
492.97	1628.14
493.17	1722.34
493.38	1773.54
493.58	1826.79
493.79	1738.73
494.00	1697.77
494.20	1621.99
494.41	1759.21
494.61	1787.88
494.82	1699.81
495.02	1675.24
495.23	1800.16
495.44	1716.20
495.64	1734.63
495.85	1697.77
496.05	1736.68
496.26	1697.77
496.47	1681.38
496.67	1648.61
496.88	1785.83
497.08	1679.33
497.29	1634.28
497.49	1748.97
497.70	1703.91
497.91	1617.90
498.11	1771.49
498.32	1699.81
498.52	1740.77
498.73	1695.72
498.93	1748.97
499.14	1777.64
499.34	1687.53
499.55	1703.91
499.76	1640.42
499.96	1769.44
500.17	1691.62
500.37	1738.73
500.58	1738.73
500.78	1650.66
500.99	1650.66
501.19	1677.29
501.40	1806.31
501.60	1527.78
501.81	1658.85
502.02	1769.44
502.22	1675.24
502.43	1705.96
502.63	1857.51
502.84	1814.50
503.04	1718.25
503.25	1724.39
503.45	1765.35
503.66	1671.14
503.86	1703.91
504.07	1773.54
504.27	1634.28
504.48	1673.19
504.68	1712.10
504.89	1841.12
505.09	1617.90
505.30	1691.62
505.50	1724.39
505.71	1660.90
505.91	1802.21
506.12	1708.01
506.32	1740.77
506.53	1652.71
506.73	1683.43
506.94	1632.23
507.14	1689.57
507.35	1808.36
507.55	1697.77
507.76	1701.86
507.96	1679.33
508.17	1710.05
508.37	1632.23
508.58	1751.01
508.78	1751.01
508.99	1789.92
509.19	1675.24
509.40	1667.05
509.60	1722.34
509.81	1773.54
510.01	1712.10
510.22	1650.66
510.42	1755.11
510.63	1714.15
510.83	1656.81
511.04	1753.06
511.24	1798.12
511.44	1634.28
511.65	1570.79
511.85	1626.09
512.06	1724.39
512.26	1701.86
512.47	1732.58
512.67	1599.46
512.88	1773.54
513.08	1630.18
513.29	1669.09
513.49	1621.99
513.69	1673.19
513.90	1691.62
514.10	1701.86
514.31	1673.19
514.51	1681.38
514.72	1687.53
514.92	1740.77
515.13	1689.57
515.33	1730.53
515.53	1646.57
515.74	1761.25
515.94	1724.39
516.15	1785.83
516.35	1593.32
516.56	1697.77
516.76	1634.28
516.96	1642.47
517.17	1705.96
517.37	1671.14
517.58	1640.42
517.78	1652.71
517.99	1822.69
518.19	1755.11
518.39	1732.58
518.60	1679.33
518.80	1644.52
519.01	1859.56
519.21	1667.05
519.41	1658.85
519.62	1675.24
519.82	1685.48
520.03	1601.51
520.23	1615.85
520.43	1634.28
520.64	1761.25
520.84	1726.44
521.05	1619.94
521.25	1740.77
521.45	1650.66
521.66	1683.43
521.86	1720.29
522.07	1738.73
522.27	1710.05
522.47	1726.44
522.68	1636.33
522.88	1720.29
523.08	1728.49
523.29	1583.08
523.49	1660.90
523.70	1648.61
523.90	1581.03
524.10	1656.81
524.31	1662.95
524.51	1558.50
524.71	1785.83
524.92	1685.48
525.12	1617.90
525.33	1714.15
525.53	1693.67
525.73	1714.15
525.94	1658.85
526.14	1744.87
526.34	1591.27
526.55	1654.76
526.75	1701.86
526.95	1820.64
527.16	1638.38
527.36	1691.62
527.56	1673.19
527.77	1699.81
527.97	1718.25
528.17	1767.40
528.38	1687.53
528.58	1695.72
528.78	1642.47
528.99	1652.71
529.19	1671.14
529.39	1615.85
529.60	1570.79
529.80	1683.43
530.00	1675.24
530.21	1730.53
530.41	1714.15
530.61	1751.01
530.82	1689.57
531.02	1658.85
531.22	1714.15
531.43	1662.95
531.63	1683.43
531.83	1732.58
532.04	1759.21
532.24	1683.43
532.44	1654.76
532.64	1824.74
532.85	1644.52
533.05	1660.90
533.25	1621.99
533.46	1624.04
533.66	1724.39
533.86	1644.52
534.07	1748.97
534.27	1646.57
534.47	1642.47
534.67	1773.54
534.88	1671.14
535.08	1732.58
535.28	1728.49
535.49	1683.43
535.69	1730.53
535.89	1738.73
536.09	1781.73
536.30	1757.16
536.50	1638.38
536.70	1748.97
536.91	1634.28
537.11	1783.78
537.31	1738.73
537.51	1748.97
537.72	1722.34
537.92	1675.24
538.12	1781.73
538.32	1660.90
538.53	1691.62
538.73	1685.48
538.93	1687.53
539.13	1650.66
539.34	1771.49
539.54	1632.23
539.74	1740.77
539.94	1712.10
540.15	1808.36
540.35	1742.82
540.55	1712.10
540.75	1638.38
540.96	1765.35
541.16	1685.48
541.36	1624.04
541.56	1757.16
541.77	1826.79
541.97	1824.74
542.17	1669.09
542.37	1841.12
542.58	1763.30
542.78	1746.92
542.98	1716.20
543.18	1712.10
543.38	1730.53
543.59	1687.53
543.79	1763.30
543.99	1621.99
544.19	1660.90
544.40	1771.49
544.60	1697.77
544.80	1683.43
545.00	1634.28
545.20	1777.64
545.41	1705.96
545.61	1548.26
545.81	1658.85
546.01	1740.77
546.21	1736.68
546.42	1744.87
546.62	1806.31
546.82	1691.62
547.02	1658.85
547.22	1759.21
547.43	1740.77
547.63	1679.33
547.83	1691.62
548.03	1660.90
548.23	1820.64
548.44	1724.39
548.64	1642.47
548.84	1763.30
549.04	1636.33
549.24	1785.83
549.45	1843.17
549.65	1658.85
549.85	1712.10
550.05	1640.42
550.25	1650.66
550.45	1804.26
550.66	1685.48
550.86	1634.28
551.06	1763.30
551.26	1660.90
551.46	1624.04
551.66	1705.96
551.87	1716.20
552.07	1681.38
552.27	1658.85
552.47	1726.44
552.67	1716.20
552.87	1667.05
553.07	1689.57
553.28	1701.86
553.48	1611.75
553.68	1681.38
553.88	1777.64
554.08	1691.62
554.28	1601.51
554.48	1710.05
554.69	1728.49
554.89	1654.76
555.09	1624.04
555.29	1613.80
555.49	1679.33
555.69	1665.00
555.89	1681.38
556.10	1640.42
556.30	1679.33
556.50	1724.39
556.70	1667.05
556.90	1740.77
557.10	1837.03
557.30	1748.97
557.50	1658.85
557.70	1632.23
557.91	1728.49
558.11	1646.57
558.31	1818.60
558.51	1720.29
558.71	1779.68
558.91	1759.21
559.11	1605.61
559.31	1591.27
559.51	1640.42
559.72	1730.53
559.92	1619.94
560.12	1624.04
560.32	1724.39
560.52	1751.01
560.72	1679.33
560.92	1732.58
561.12	1716.20
561.32	1728.49
561.52	1683.43
561.72	1826.79
561.93	1705.96
562.13	1667.05
562.33	1675.24
562.53	1685.48
562.73	1646.57
562.93	1679.33
563.13	1763.30
563.33	1775.59
563.53	1718.25
563.73	1765.35
563.93	1830.88
564.13	1826.79
564.33	1697.77
564.53	1751.01
564.74	1746.92
564.94	1667.05
565.14	1738.73
565.34	1771.49
565.54	1759.21
565.74	1640.42
565.94	1675.24
566.14	1591.27
566.34	1744.87
566.54	1691.62
566.74	1736.68
566.94	1728.49
567.14	1689.57
567.34	1628.14
567.54	1708.01
567.74	1814.50
567.94	1765.35
568.14	1642.47
568.34	1818.60
568.54	1636.33
568.74	1781.73
568.94	1677.29
569.14	1802.21
569.34	1648.61
569.54	1570.79
569.75	1742.82
569.95	1732.58
570.15	1785.83
570.35	1708.01
570.55	1611.75
570.75	1660.90
570.95	1716.20
571.15	1765.35
571.35	1695.72
571.55	1644.52
571.75	1753.06
571.95	1687.53
572.15	1742.82
572.35	1667.05
572.55	1763.30
572.75	1705.96
572.95	1615.85
573.15	1748.97
573.35	1742.82
573.55	1748.97
573.75	1708.01
573.95	1826.79
574.15	1736.68
574.35	1638.38
574.55	1634.28
574.75	1630.18
574.95	1667.05
575.15	1693.67
575.34	1753.06
575.54	1714.15
575.74	1658.85
575.94	1746.92
576.14	1568.74
576.34	1765.35
576.54	1734.63
576.74	1726.44
576.94	1636.33
577.14	1658.85
577.34	1746.92
577.54	1687.53
577.74	1697.77
577.94	1712.10
578.14	1597.42
578.34	1726.44
578.54	1650.66
578.74	1642.47
578.94	1738.73
579.14	1783.78
579.34	1646.57
579.54	1718.25
579.74	1650.66
579.94	1628.14
580.13	1650.66
580.33	1640.42
580.53	1687.53
580.73	1638.38
580.93	1716.20
581.13	1691.62
581.33	1703.91
581.53	1701.86
581.73	1726.44
581.93	1652.71
582.13	1744.87
582.33	1703.91
582.53	1603.56
582.73	1728.49
582.92	1656.81
583.12	1794.02
583.32	1642.47
583.52	1781.73
583.72	1804.26
583.92	1726.44
584.12	1695.72
584.32	1695.72
584.52	1634.28
584.72	1714.15
584.92	1662.95
585.11	1712.10
585.31	1748.97
585.51	1626.09
585.71	1695.72
585.91	1789.92
586.11	1751.01
586.31	1779.68
586.51	1705.96
586.71	1744.87
586.91	1665.00
587.10	1763.30
587.30	1769.44
587.50	1683.43
587.70	1671.14
587.90	1636.33
588.10	1656.81
588.30	1656.81
588.50	1634.28
588.69	1626.09
588.89	1644.52
589.09	1720.29
589.29	1708.01
589.49	1660.90
589.69	1607.66
589.89	1714.15
590.08	1714.15
590.28	1679.33
590.48	1695.72
590.68	1703.91
590.88	1708.01
591.08	1734.63
591.28	1652.71
591.47	1753.06
591.67	1626.09
591.87	1679.33
592.07	1783.78
592.27	1570.79
592.47	1550.31
592.67	1728.49
592.86	1667.05
593.06	1751.01
593.26	1728.49
593.46	1691.62
593.66	1691.62
593.86	1734.63
594.05	1798.12
594.25	1744.87
594.45	1714.15
594.65	1773.54
594.85	1751.01
595.05	1644.52
595.24	1662.95
595.44	1742.82
595.64	1728.49
595.84	1771.49
596.04	1767.40
596.23	1691.62
596.43	1732.58
596.63	1722.34
596.83	1687.53
597.03	1902.56
597.22	1677.29
597.42	1716.20
597.62	1716.20
597.82	1712.10
598.02	1640.42
598.21	1671.14
598.41	1658.85
598.61	1683.43
598.81	1658.85
599.01	1736.68
599.20	1730.53
599.40	1675.24
599.60	1724.39
599.80	1738.73
600.00	1734.63
600.19	1802.21
600.39	1638.38
600.59	1744.87
600.79	1794.02
600.98	1722.34
601.18	1753.06
601.38	1810.40
601.58	1683.43
601.78	1783.78
601.97	1775.59
602.17	1695.72
602.37	1662.95
602.57	1781.73
602.76	1644.52
602.96	1679.33
603.16	1652.71
603.36	1761.25
603.55	1757.16
603.75	1607.66
603.95	1751.01
604.15	1808.36
604.34	1787.88
604.54	1712.10
604.74	1712.10
604.94	1685.48
605.13	1656.81
605.33	1689.57
605.53	1685.48
605.73	1785.83
605.92	1681.38
606.12	1679.33
606.32	1662.95
606.52	1802.21
606.71	1728.49
606.91	1751.01
607.11	1705.96
607.30	1712.10
607.50	1679.33
607.70	1796.07
607.90	1619.94
608.09	1607.66
608.29	1703.91
608.49	1779.68
608.68	1665.00
608.88	1642.47
609.08	1693.67
609.28	1734.63
609.47	1646.57
609.67	1726.44
609.87	1685.48
610.06	1687.53
610.26	1718.25
610.46	1806.31
610.66	1613.80
610.85	1634.28
611.05	1787.88
611.25	1701.86
611.44	1642.47
611.64	1677.29
611.84	1703.91
612.03	1705.96
612.23	1712.10
612.43	1710.05
612.62	1673.19
612.82	1781.73
613.02	1753.06
613.21	1746.92
613.41	1732.58
613.61	1648.61
613.80	1708.01
614.00	1624.04
614.20	1736.68
614.39	1789.92
614.59	1781.73
614.79	1599.46
614.98	1765.35
615.18	1679.33
615.38	1677.29
615.57	1679.33
615.77	1859.56
615.97	1665.00
616.16	1697.77
616.36	1712.10
616.56	1665.00
616.75	1689.57
616.95	1599.46
617.15	1791.97
617.34	1718.25
617.54	1708.01
617.74	1832.93
617.93	1857.51
618.13	1734.63
618.32	1720.29
618.52	1748.97
618.72	1654.76
618.91	1761.25
619.11	1812.45
619.31	1716.20
619.50	1720.29
619.70	1710.05
619.90	1703.91
620.09	1781.73
620.29	1732.58
620.48	1748.97
620.68	1759.21
620.88	1724.39
621.07	1742.82
621.27	1722.34
621.46	1712.10
621.66	1710.05
621.86	1699.81
622.05	1609.70
622.25	1826.79
622.44	1650.66
622.64	1746.92
622.84	1644.52
623.03	1589.22
623.23	1644.52
623.42	1695.72
623.62	1757.16
623.82	1773.54
624.01	1710.05
624.21	1718.25
624.40	1736.68
624.60	1640.42
624.80	1744.87
624.99	1703.91
625.19	1705.96
625.38	1640.42
625.58	1638.38
625.77	1656.81
625.97	1679.33
626.17	1646.57
626.36	1671.14
626.56	1771.49
626.75	1658.85
626.95	1753.06
627.14	1740.77
627.34	1671.14
627.54	1851.36
627.73	1769.44
627.93	1755.11
628.12	1689.57
628.32	1748.97
628.51	1667.05
628.71	1800.16
628.90	1763.30
629.10	1658.85
629.30	1703.91
629.49	1798.12
629.69	1679.33
629.88	1683.43
630.08	1824.74
630.27	1820.64
630.47	1705.96
630.66	1699.81
630.86	1771.49
631.05	1781.73
631.25	1710.05
631.44	1683.43
631.64	1675.24
631.84	1638.38
632.03	1753.06
632.23	1658.85
632.42	1693.67
632.62	1658.85
632.81	1716.20
633.01	1783.78
633.20	1808.36
633.40	1810.40
633.59	1769.44
633.79	1671.14
633.98	1699.81
634.18	1744.87
634.37	1767.40
634.57	1736.68
634.76	1665.00
634.96	1808.36
635.15	1820.64
635.35	1773.54
635.54	1765.35
635.74	1753.06
635.93	1679.33
636.13	1687.53
636.32	1785.83
636.52	1751.01
636.71	1806.31
636.91	1673.19
637.10	1740.77
637.30	1705.96
637.49	1683.43
637.69	1773.54
637.88	1724.39
638.08	1683.43
638.27	1714.15
638.46	1679.33
638.66	1748.97
638.85	1634.28
639.05	1763.30
639.24	1755.11
639.44	1720.29
639.63	1818.60
639.83	1722.34
640.02	1718.25
640.22	1673.19
640.41	1650.66
640.61	1744.87
640.80	1681.38
640.99	1609.70
641.19	1791.97
641.38	1777.64
641.58	1722.34
641.77	1769.44
641.97	1574.89
642.16	1613.80
642.36	1773.54
642.55	1755.11
642.74	1644.52
642.94	1748.97
643.13	1662.95
643.33	1785.83
643.52	1765.35
643.72	1759.21
643.91	1640.42
644.10	1734.63
644.30	1644.52
644.49	1683.43
644.69	1660.90
644.88	1746.92
645.08	1763.30
645.27	1742.82
645.46	1632.23
645.66	1644.52
645.85	1759.21
646.05	1697.77
646.24	1673.19
646.43	1701.86
646.63	1697.77
646.82	1716.20
647.02	1687.53
647.21	1853.41
647.40	1726.44
647.60	1681.38
647.79	1810.40
647.99	1691.62
648.18	1708.01
648.37	1634.28
648.57	1708.01
648.76	1679.33
648.96	1665.00
649.15	1662.95
649.34	1787.88
649.54	1744.87
649.73	1757.16
649.92	1732.58
650.12	1863.65
650.31	1693.67
650.51	1910.75
650.70	1724.39
650.89	1665.00
651.09	1830.88
651.28	1757.16
651.47	1638.38
651.67	1738.73
651.86	1761.25
652.06	1617.90
652.25	1757.16
652.44	1621.99
652.64	1703.91
652.83	1732.58
653.02	1757.16
653.22	1726.44
653.41	1601.51
653.60	1705.96
653.80	1587.18
653.99	1699.81
654.18	1681.38
654.38	1673.19
654.57	1722.34
654.76	1671.14
654.96	1675.24
655.15	1679.33
655.34	1732.58
655.54	1638.38
655.73	1677.29
655.92	1628.14
656.12	1691.62
656.31	1812.45
656.50	1773.54
656.70	1716.20
656.89	1652.71
657.08	1593.32
657.28	1765.35
657.47	1626.09
657.66	1677.29
657.86	1681.38
658.05	1740.77
658.24	1763.30
658.43	1746.92
658.63	1595.37
658.82	1748.97
659.01	1728.49
659.21	1820.64
659.40	1685.48
659.59	1757.16
659.79	1693.67
659.98	1763.30
660.17	1759.21
660.36	1845.22
660.56	1781.73
660.75	1763.30
660.94	1744.87
661.14	1652.71
661.33	1665.00
661.52	1691.62
661.71	1837.03
661.91	1650.66
662.10	1722.34
662.29	1660.90
662.49	1687.53
662.68	1591.27
662.87	1656.81
663.06	1744.87
663.26	1632.23
663.45	1894.37
663.64	1701.86
663.83	1744.87
664.03	1771.49
664.22	1761.25
664.41	1742.82
664.60	1847.27
664.80	1542.12
664.99	1763.30
665.18	1775.59
665.37	1736.68
665.57	1738.73
665.76	1703.91
665.95	1675.24
666.14	1640.42
666.34	1687.53
666.53	1665.00
666.72	1671.14
666.91	1748.97
667.11	1738.73
667.30	1908.71
667.49	1634.28
667.68	1843.17
667.87	1791.97
668.07	1710.05
668.26	1578.98
668.45	1636.33
668.64	1671.14
668.84	1812.45
669.03	1652.71
669.22	1759.21
669.41	1695.72
669.60	1712.10
669.80	1787.88
669.99	1708.01
670.18	1724.39
670.37	1794.02
670.57	1740.77
670.76	1630.18
670.95	1820.64
671.14	1644.52
671.33	1728.49
671.53	1697.77
671.72	1738.73
671.91	1753.06
672.10	1697.77
672.29	1734.63
672.48	1673.19
672.68	1691.62
672.87	1601.51
673.06	1771.49
673.25	1722.34
673.44	1636.33
673.64	1685.48
673.83	1773.54
674.02	1687.53
674.21	1738.73
674.40	1748.97
674.59	1665.00
674.79	1677.29
674.98	1757.16
675.17	1787.88
675.36	1576.94
675.55	1669.09
675.74	1634.28
675.94	1859.56
676.13	1785.83
676.32	1638.38
676.51	1626.09
676.70	1611.75
676.89	1732.58
677.08	1716.20
677.28	1808.36
677.47	1681.38
677.66	1687.53
677.85	1630.18
678.04	1761.25
678.23	1812.45
678.42	1656.81
678.62	1654.76
678.81	1718.25
679.00	1654.76
679.19	1834.98
679.38	1732.58
679.57	1675.24
679.76	1705.96
679.96	1632.23
680.15	1757.16
680.34	1712.10
680.53	1734.63
680.72	1726.44
680.91	1734.63
681.10	1736.68
681.29	1720.29
681.48	1773.54
681.68	1718.25
681.87	1785.83
682.06	1732.58
682.25	1691.62
682.44	1660.90
682.63	1816.55
682.82	1609.70
683.01	1728.49
683.20	1697.77
683.39	1863.65
683.59	1740.77
683.78	1685.48
683.97	1679.33
684.16	1679.33
684.35	1683.43
684.54	1765.35
684.73	1701.86
684.92	1593.32
685.11	1814.50
685.30	1759.21
685.49	1728.49
685.69	1818.60
685.88	1656.81
686.07	1581.03
686.26	1693.67
686.45	1728.49
686.64	1761.25
686.83	1773.54
687.02	1767.40
687.21	1808.36
687.40	1757.16
687.59	1912.80
687.78	1769.44
687.97	1716.20
688.16	1708.01
688.35	1755.11
688.54	1628.14
688.74	1497.07
688.93	1791.97
689.12	1667.05
689.31	1837.03
689.50	1748.97
689.69	1609.70
689.88	1691.62
690.07	1722.34
690.26	1697.77
690.45	1681.38
690.64	1585.13
690.83	1656.81
691.02	1683.43
691.21	1705.96
691.40	1712.10
691.59	1687.53
691.78	1708.01
691.97	1755.11
692.16	1728.49
692.35	1765.35
692.54	1857.51
692.73	1648.61
692.92	1769.44
693.11	1673.19
693.30	1802.21
693.49	1691.62
693.68	1740.77
693.87	1716.20
694.06	1644.52
694.25	1667.05
694.44	1779.68
694.63	1738.73
694.82	1642.47
695.01	1644.52
695.20	1689.57
695.39	1667.05
695.58	1724.39
695.77	1630.18
695.96	1740.77
696.15	1726.44
696.34	1693.67
696.53	1699.81
696.72	1703.91
696.91	1738.73
697.10	1757.16
697.29	1638.38
697.48	1796.07
697.67	1794.02
697.86	1732.58
698.05	1673.19
698.24	1724.39
698.43	1673.19
698.62	1699.81
698.81	1716.20
699.00	1781.73
699.19	1732.58
699.38	1771.49
699.57	1607.66
699.76	1751.01
699.95	1648.61
700.14	1777.64
700.32	1667.05
700.51	1697.77
700.70	1667.05
700.89	1765.35
701.08	1796.07
701.27	1712.10
701.46	1802.21
701.65	1738.73
701.84	1611.75
702.03	1722.34
702.22	1675.24
702.41	1746.92
702.60	1773.54
702.79	1724.39
702.98	1628.14
703.17	1730.53
703.35	1695.72
703.54	1755.11
703.73	1679.33
703.92	1683.43
704.11	1671.14
704.30	1667.05
704.49	1712.10
704.68	1640.42
704.87	1726.44
705.06	1755.11
705.25	1570.79
705.43	1615.85
705.62	1650.66
705.81	1744.87
706.00	1701.86
706.19	1703.91
706.38	1619.94
706.57	1736.68
706.76	1744.87
706.95	1748.97
707.14	1716.20
707.32	1624.04
707.51	1642.47
707.70	1658.85
707.89	1755.11
708.08	1660.90
708.27	1736.68
708.46	1773.54
708.65	1683.43
708.84	1699.81
709.02	1679.33
709.21	1675.24
709.40	1730.53
709.59	1724.39
709.78	1634.28
709.97	1617.90
710.16	1798.12
710.34	1691.62
710.53	1710.05
710.72	1642.47
710.91	1673.19
711.10	1650.66
711.29	1630.18
711.48	1818.60
711.66	1773.54
711.85	1763.30
712.04	1755.11
712.23	1677.29
712.42	1765.35
712.61	1718.25
712.80	1640.42
712.98	1761.25
713.17	1652.71
713.36	1671.14
713.55	1806.31
713.74	1738.73
713.93	1785.83
714.11	1662.95
714.30	1576.94
714.49	1730.53
714.68	1685.48
714.87	1609.70
715.06	1875.94
715.24	1699.81
715.43	1689.57
715.62	1650.66
715.81	1673.19
716.00	1728.49
716.18	1613.80
716.37	1716.20
716.56	1705.96
716.75	1689.57
716.94	1648.61
717.12	1755.11
717.31	1669.09
717.50	1724.39
717.69	1687.53
717.88	1724.39
718.06	1658.85
718.25	1699.81
718.44	1685.48
718.63	1816.55
718.82	1626.09
719.00	1705.96
719.19	1697.77
719.38	1617.90
719.57	1644.52
719.76	1722.34
719.94	1691.62
720.13	1708.01
720.32	1789.92
720.51	1679.33
720.69	1628.14
720.88	1654.76
721.07	1630.18
721.26	1761.25
721.44	1755.11
721.63	1699.81
721.82	1660.90
722.01	1712.10
722.20	1728.49
722.38	1699.81
722.57	1578.98
722.76	1724.39
722.95	1632.23
723.13	1654.76
723.32	1736.68
723.51	1771.49
723.70	1683.43
723.88	1761.25
724.07	1673.19
724.26	1742.82
724.44	1654.76
724.63	1740.77
724.82	1712.10
725.01	1662.95
725.19	1691.62
725.38	1683.43
725.57	1574.89
725.76	1763.30
725.94	1642.47
726.13	1695.72
726.32	1597.42
726.51	1656.81
726.69	1621.99
726.88	1652.71
727.07	1781.73
727.25	1689.57
727.44	1699.81
727.63	1693.67
727.82	1660.90
728.00	1722.34
728.19	1722.34
728.38	1638.38
728.56	1572.84
728.75	1775.59
728.94	1726.44
729.12	1699.81
729.31	1642.47
729.50	1652.71
729.69	1746.92
729.87	1578.98
730.06	1681.38
730.25	1744.87
730.43	1705.96
730.62	1617.90
730.81	1679.33
730.99	1640.42
731.18	1621.99
731.37	1671.14
731.55	1771.49
731.74	1773.54
731.93	1683.43
732.11	1689.57
732.30	1652.71
732.49	1689.57
732.67	1646.57
732.86	1654.76
733.05	1589.22
733.23	1781.73
733.42	1660.90
733.61	1699.81
733.79	1728.49
733.98	1771.49
734.17	1748.97
734.35	1763.30
734.54	1708.01
734.73	1822.69
734.91	1605.61
735.10	1744.87
735.29	1695.72
735.47	1646.57
735.66	1679.33
735.84	1773.54
736.03	1687.53
736.22	1705.96
736.40	1705.96
736.59	1515.50
736.78	1677.29
736.96	1609.70
737.15	1785.83
737.33	1714.15
737.52	1671.14
737.71	1773.54
737.89	1708.01
738.08	1667.05
738.27	1769.44
738.45	1689.57
738.64	1691.62
738.82	1648.61
739.01	1695.72
739.20	1728.49
739.38	1755.11
739.57	1734.63
739.75	1726.44
739.94	1724.39
740.13	1613.80
740.31	1689.57
740.50	1769.44
740.68	1699.81
740.87	1605.61
741.06	1787.88
741.24	1728.49
741.43	1738.73
741.61	1656.81
741.80	1673.19
741.99	1603.56
742.17	1701.86
742.36	1597.42
742.54	1720.29
742.73	1722.34
742.91	1671.14
743.10	1722.34
743.29	1699.81
743.47	1753.06
743.66	1593.32
743.84	1587.18
744.03	1724.39
744.21	1667.05
744.40	1687.53
744.59	1703.91
744.77	1691.62
744.96	1767.40
745.14	1642.47
745.33	1687.53
745.51	1808.36
745.70	1671.14
745.88	1712.10
746.07	1605.61
746.26	1732.58
746.44	1679.33
746.63	1570.79
746.81	1757.16
747.00	1691.62
747.18	1726.44
747.37	1624.04
747.55	1720.29
747.74	1994.72
747.92	1634.28
748.11	1796.07
748.29	1636.33
748.48	1769.44
748.66	1544.17
748.85	1683.43
749.03	1650.66
749.22	1683.43
749.41	1673.19
749.59	1665.00
749.78	1703.91
749.96	1587.18
750.15	1691.62
750.33	1656.81
750.52	1675.24
750.70	1617.90
750.89	1775.59
751.07	1687.53
751.26	1697.77
751.44	1601.51
751.63	1714.15
751.81	1634.28
752.00	1632.23
752.18	1660.90
752.37	1701.86
752.55	1562.60
752.74	1617.90
752.92	1683.43
753.10	1632.23
753.29	1681.38
753.47	1732.58
753.66	1556.46
753.84	1540.07
754.03	1619.94
754.21	1574.89
754.40	1701.86
754.58	1714.15
754.77	1763.30
754.95	1728.49
755.14	1705.96
755.32	1708.01
755.51	1634.28
755.69	1626.09
755.88	1593.32
756.06	1716.20
756.24	1640.42
756.43	1740.77
756.61	1640.42
756.80	1644.52
756.98	1705.96
757.17	1773.54
757.35	1705.96
757.54	1650.66
757.72	1726.44
757.90	1662.95
758.09	1609.70
758.27	1609.70
758.46	1667.05
758.64	1703.91
758.83	1730.53
759.01	1708.01
759.19	1718.25
759.38	1662.95
759.56	1662.95
759.75	1613.80
759.93	1791.97
760.12	1665.00
760.30	1687.53
760.48	1705.96
760.67	1681.38
760.85	1642.47
761.04	1658.85
761.22	1673.19
761.40	1665.00
761.59	1654.76
761.77	1699.81
761.96	1724.39
762.14	1751.01
762.32	1710.05
762.51	1611.75
762.69	1611.75
762.88	1722.34
763.06	1593.32
763.24	1662.95
763.43	1673.19
763.61	1628.14
763.80	1701.86
763.98	1789.92
764.16	1646.57
764.35	1585.13
764.53	1646.57
764.72	1691.62
764.90	1683.43
765.08	1689.57
765.27	1744.87
765.45	1708.01
765.63	1658.85
765.82	1705.96
766.00	1628.14
766.18	1658.85
766.37	1714.15
766.55	1621.99
766.74	1695.72
766.92	1626.09
767.10	1595.37
767.29	1748.97
767.47	1636.33
767.65	1691.62
767.84	1740.77
768.02	1710.05
768.20	1691.62
768.39	1744.87
768.57	1720.29
768.75	1648.61
768.94	1822.69
769.12	1605.61
769.30	1695.72
769.49	1669.09
769.67	1591.27
769.85	1757.16
770.04	1583.08
770.22	1679.33
770.40	1691.62
770.59	1673.19
770.77	1736.68
770.95	1714.15
771.14	1699.81
771.32	1677.29
771.50	1720.29
771.69	1617.90
771.87	1724.39
772.05	1646.57
772.24	1564.65
772.42	1769.44
772.60	1607.66
772.78	1759.21
772.97	1642.47
773.15	1671.14
773.33	1773.54
773.52	1630.18
773.70	1703.91
773.88	1714.15
774.07	1560.55
774.25	1638.38
774.43	1732.58
774.61	1701.86
774.80	1673.19
774.98	1589.22
775.16	1671.14
775.34	1681.38
775.53	1744.87
775.71	1695.72
775.89	1705.96
776.08	1615.85
776.26	1691.62
776.44	1687.53
776.62	1665.00
776.81	1675.24
776.99	1757.16
777.17	1708.01
777.35	1744.87
777.54	1654.76
777.72	1619.94
777.90	1660.90
778.08	1626.09
778.27	1691.62
778.45	1648.61
778.63	1695.72
778.81	1742.82
779.00	1761.25
779.18	1738.73
779.36	1701.86
779.54	1658.85
779.73	1695.72
779.91	1695.72
780.09	1597.42
780.27	1628.14
780.46	1732.58
780.64	1644.52
780.82	1656.81
781.00	1724.39
781.19	1617.90
781.37	1650.66
781.55	1746.92
781.73	1617.90
781.91	1650.66
782.10	1626.09
782.28	1773.54
782.46	1753.06
782.64	1703.91
782.82	1773.54
783.01	1640.42
783.19	1771.49
783.37	1736.68
783.55	1617.90
783.74	1740.77
783.92	1662.95
784.10	1699.81
784.28	1628.14
784.46	1646.57
784.64	1544.17
784.83	1716.20
785.01	1740.77
785.19	1765.35
785.37	1685.48
785.55	1665.00
785.74	1642.47
785.92	1605.61
786.10	1652.71
786.28	1701.86
786.46	1677.29
786.64	1628.14
786.83	1630.18
787.01	1740.77
787.19	1761.25
787.37	1789.92
787.55	1638.38
787.74	1628.14
787.92	1621.99
788.10	1697.77
788.28	1601.51
788.46	1640.42
788.64	1736.68
788.82	1681.38
789.01	1693.67
789.19	1816.55
789.37	1681.38
789.55	1636.33
789.73	1595.37
789.91	1624.04
790.09	1646.57
790.28	1662.95
790.46	1667.05
790.64	1679.33
790.82	1578.98
791.00	1564.65
791.18	1732.58
791.36	1748.97
791.55	1683.43
791.73	1656.81
791.91	1648.61
792.09	1648.61
792.27	1605.61
792.45	1679.33
792.63	1734.63
792.81	1683.43
793.00	1794.02
793.18	1658.85
793.36	1722.34
793.54	1628.14
793.72	1673.19
793.90	1634.28
794.08	1597.42
794.26	1617.90
794.44	1523.69
794.62	1687.53
794.81	1574.89
794.99	1677.29
795.17	1779.68
795.35	1611.75
795.53	1665.00
795.71	1681.38
795.89	1568.74
796.07	1613.80
796.25	1710.05
796.43	1712.10
796.61	1607.66
796.80	1658.85
796.98	1646.57
797.16	1673.19
797.34	1630.18
797.52	1581.03
797.70	1718.25
797.88	1773.54
798.06	1613.80
798.24	1769.44
798.42	1640.42
798.60	1701.86
798.78	1714.15
798.96	1699.81
799.14	1626.09
799.32	1716.20
799.51	1619.94
799.69	1716.20
799.87	1787.88
800.05	1671.14
800.23	1640.42
800.41	1722.34
800.59	1677.29
800.77	1642.47
800.95	1521.64
801.13	1656.81
801.31	1640.42
801.49	1742.82
801.67	1656.81
801.85	1679.33
802.03	1611.75
802.21	1714.15
802.39	1630.18
802.57	1656.81
802.75	1681.38
802.93	1712.10
803.11	1548.26
803.29	1667.05
803.47	1669.09
803.65	1626.09
803.83	1570.79
804.01	1599.46
804.19	1691.62
804.37	1712.10
804.55	1669.09
804.73	1703.91
804.91	1685.48
805.09	1716.20
805.27	1705.96
805.45	1687.53
805.63	1718.25
805.81	1736.68
805.99	1644.52
806.17	1624.04
806.35	1562.60
806.53	1652.71
806.71	1728.49
806.89	1632.23
807.07	1689.57
807.25	1738.73
807.43	1615.85
807.61	1761.25
807.79	1714.15
807.97	1648.61
808.15	1699.81
808.33	1671.14
808.51	1734.63
808.69	1677.29
808.87	1597.42
809.05	1679.33
809.23	1671.14
809.41	1638.38
809.59	1585.13
809.77	1765.35
809.95	1640.42
810.13	1753.06
810.31	1695.72
810.49	1736.68
810.67	1636.33
810.84	1738.73
811.02	1675.24
811.20	1597.42
811.38	1775.59
811.56	1576.94
811.74	1648.61
811.92	1669.09
812.10	1683.43
812.28	1669.09
812.46	1626.09
812.64	1689.57
812.82	1699.81
813.00	1626.09
813.18	1658.85
813.36	1736.68
813.53	1736.68
813.71	1800.16
813.89	1683.43
814.07	1576.94
814.25	1714.15
814.43	1572.84
814.61	1540.07
814.79	1654.76
814.97	1671.14
815.15	1667.05
815.33	1675.24
815.50	1599.46
815.68	1576.94
815.86	1710.05
816.04	1675.24
816.22	1658.85
816.40	1759.21
816.58	1615.85
816.76	1619.94
816.94	1697.77
817.11	1669.09
817.29	1689.57
817.47	1548.26
817.65	1712.10
817.83	1679.33
818.01	1679.33
818.19	1648.61
818.37	1640.42
818.54	1699.81
818.72	1673.19
818.90	1675.24
819.08	1648.61
819.26	1675.24
819.44	1757.16
819.62	1710.05
819.80	1646.57
819.97	1738.73
820.15	1667.05
820.33	1658.85
820.51	1644.52
820.69	1689.57
820.87	1675.24
821.05	1765.35
821.22	1607.66
821.40	1626.09
821.58	1755.11
821.76	1656.81
821.94	1617.90
822.12	1701.86
822.29	1794.02
822.47	1581.03
822.65	1640.42
822.83	1654.76
823.01	1673.19
823.19	1716.20
823.36	1626.09
823.54	1644.52
823.72	1697.77
823.90	1673.19
824.08	1572.84
824.25	1708.01
824.43	1621.99
824.61	1624.04
824.79	1626.09
824.97	1544.17
825.15	1746.92
825.32	1642.47
825.50	1683.43
825.68	1679.33
825.86	1671.14
826.04	1601.51
826.21	1755.11
826.39	1615.85
826.57	1585.13
826.75	1589.22
826.93	1669.09
827.10	1744.87
827.28	1591.27
827.46	1650.66
827.64	1685.48
827.81	1705.96
827.99	1652.71
828.17	1609.70
828.35	1581.03
828.53	1597.42
828.70	1632.23
828.88	1662.95
829.06	1675.24
829.24	1681.38
829.41	1685.48
829.59	1753.06
829.77	1732.58
829.95	1650.66
830.12	1556.46
830.30	1667.05
830.48	1671.14
830.66	1617.90
830.84	1562.60
831.01	1683.43
831.19	1595.37
831.37	1669.09
831.55	1646.57
831.72	1746.92
831.90	1634.28
832.08	1695.72
832.25	1648.61
832.43	1701.86
832.61	1832.93
832.79	1558.50
832.96	1759.21
833.14	1746.92
833.32	1789.92
833.50	1683.43
833.67	1710.05
833.85	1626.09
834.03	1548.26
834.20	1597.42
834.38	1718.25
834.56	1710.05
834.74	1660.90
834.91	1705.96
835.09	1775.59
835.27	1578.98
835.44	1748.97
835.62	1619.94
835.80	1667.05
835.98	1619.94
836.15	1669.09
836.33	1675.24
836.51	1613.80
836.68	1673.19
836.86	1597.42
837.04	1650.66
837.21	1787.88
837.39	1716.20
837.57	1728.49
837.75	1660.90
837.92	1660.90
838.10	1646.57
838.28	1665.00
838.45	1691.62
838.63	1605.61
838.81	1705.96
838.98	1685.48
839.16	1669.09
839.34	1656.81
839.51	1632.23
839.69	1591.27
839.87	1673.19
840.04	1703.91
840.22	1898.47
840.40	1585.13
840.57	1599.46
840.75	1617.90
840.93	1624.04
841.10	1703.91
841.28	1775.59
841.46	1728.49
841.63	1662.95
841.81	1636.33
841.98	1550.31
842.16	1716.20
842.34	1626.09
842.51	1544.17
842.69	1570.79
842.87	1691.62
843.04	1683.43
843.22	1593.32
843.40	1583.08
843.57	1667.05
843.75	1615.85
843.92	1693.67
844.10	1658.85
844.28	1624.04
844.45	1581.03
844.63	1689.57
844.81	1675.24
844.98	1757.16
845.16	1695.72
845.33	1742.82
845.51	1638.38
845.69	1673.19
845.86	1681.38
846.04	1615.85
846.21	1632.23
846.39	1617.90
846.57	1617.90
846.74	1685.48
846.92	1761.25
847.09	1646.57
847.27	1640.42
847.45	1689.57
847.62	1630.18
847.80	1673.19
847.97	1662.95
848.15	1572.84
848.32	1660.90
848.50	1728.49
848.68	1660.90
848.85	1626.09
849.03	1642.47
849.20	1609.70
849.38	1669.09
849.56	1597.42
849.73	1538.02
849.91	1589.22
850.08	1724.39
850.26	1486.83
850.43	1558.50
850.61	1724.39
850.78	1527.78
850.96	1730.53
851.14	1544.17
851.31	1789.92
851.49	1634.28
851.66	1621.99
851.84	1564.65
852.01	1630.18
852.19	1587.18
852.36	1675.24
852.54	1662.95
852.71	1667.05
852.89	1732.58
853.07	1632.23
853.24	1646.57
853.42	1650.66
853.59	1689.57
853.77	1634.28
853.94	1634.28
854.12	1640.42
854.29	1581.03
854.47	1607.66
854.64	1732.58
854.82	1699.81
854.99	1714.15
855.17	1632.23
855.34	1570.79
855.52	1644.52
855.69	1724.39
855.87	1621.99
856.04	1665.00
856.22	1744.87
856.39	1681.38
856.57	1734.63
856.74	1660.90
856.92	1714.15
857.09	1685.48
857.27	1654.76
857.44	1746.92
857.62	1728.49
857.79	1701.86
857.97	1683.43
858.14	1679.33
858.32	1679.33
858.49	1681.38
858.67	1587.18
858.84	1589.22
859.02	1748.97
859.19	1695.72
859.37	1628.14
859.54	1601.51
859.72	1648.61
859.89	1630.18
860.06	1499.11
860.24	1607.66
860.41	1744.87
860.59	1495.02
860.76	1703.91
860.94	1578.98
861.11	1669.09
861.29	1734.63
861.46	1607.66
861.64	1607.66
861.81	1697.77
861.98	1687.53
862.16	1568.74
862.33	1531.88
862.51	1634.28
862.68	1613.80
862.86	1628.14
863.03	1591.27
863.21	1634.28
863.38	1527.78
863.55	1705.96
863.73	1650.66
863.90	1705.96
864.08	1560.55
864.25	1644.52
864.43	1716.20
864.60	1691.62
864.77	1665.00
864.95	1722.34
865.12	1634.28
865.30	1794.02
865.47	1642.47
865.64	1675.24
865.82	1681.38
865.99	1759.21
866.17	1669.09
866.34	1675.24
866.51	1615.85
866.69	1621.99
866.86	1787.88
867.04	1662.95
867.21	1634.28
867.38	1609.70
867.56	1669.09
867.73	1697.77
867.91	1630.18
868.08	1583.08
868.25	1632.23
868.43	1656.81
868.60	1634.28
868.78	1568.74
868.95	1634.28
869.12	1685.48
869.30	1601.51
869.47	1632.23
869.64	1662.95
869.82	1617.90
869.99	1732.58
870.16	1738.73
870.34	1632.23
870.51	1781.73
870.69	1560.55
870.86	1691.62
871.03	1718.25
871.21	1560.55
871.38	1732.58
871.55	1654.76
871.73	1583.08
871.90	1689.57
872.07	1609.70
872.25	1566.70
872.42	1656.81
872.59	1576.94
872.77	1611.75
872.94	1705.96
873.11	1669.09
873.29	1705.96
873.46	1644.52
873.63	1660.90
873.81	1583.08
873.98	1667.05
874.15	1585.13
874.33	1601.51
874.50	1613.80
874.67	1638.38
874.85	1597.42
875.02	1671.14
875.19	1648.61
875.37	1617.90
875.54	1523.69
875.71	1761.25
875.88	1654.76
876.06	1626.09
876.23	1681.38
876.40	1617.90
876.58	1683.43
876.75	1751.01
876.92	1695.72
877.10	1654.76
877.27	1718.25
877.44	1716.20
877.61	1654.76
877.79	1742.82
877.96	1671.14
878.13	1669.09
878.31	1632.23
878.48	1634.28
878.65	1724.39
878.82	1642.47
879.00	1609.70
879.17	1626.09
879.34	1576.94
879.51	1609.70
879.69	1675.24
879.86	1581.03
880.03	1613.80
880.21	1648.61
880.38	1650.66
880.55	1689.57
880.72	1695.72
880.90	1667.05
881.07	1621.99
881.24	1673.19
881.41	1603.56
881.59	1630.18
881.76	1640.42
881.93	1695.72
882.10	1609.70
882.28	1736.68
882.45	1701.86
882.62	1617.90
882.79	1753.06
882.96	1658.85
883.14	1603.56
883.31	1693.67
883.48	1609.70
883.65	1589.22
883.83	1568.74
884.00	1636.33
884.17	1630.18
884.34	1691.62
884.51	1697.77
884.69	1705.96
884.86	1642.47
885.03	1617.90
885.20	1556.46
885.38	1662.95
885.55	1691.62
885.72	1671.14
885.89	1589.22
886.06	1615.85
886.24	1560.55
886.41	1642.47
886.58	1773.54
886.75	1714.15
886.92	1648.61
887.10	1581.03
887.27	1648.61
887.44	1675.24
887.61	1730.53
887.78	1675.24
887.95	1708.01
888.13	1640.42
888.30	1576.94
888.47	1632.23
888.64	1638.38
888.81	1656.81
888.99	1601.51
889.16	1597.42
889.33	1591.27
889.50	1656.81
889.67	1640.42
889.84	1632.23
890.01	1638.38
890.19	1751.01
890.36	1732.58
890.53	1632.23
890.70	1638.38
890.87	1644.52
891.04	1611.75
891.22	1636.33
891.39	1601.51
891.56	1650.66
891.73	1656.81
891.90	1671.14
892.07	1568.74
892.24	1683.43
892.42	1597.42
892.59	1572.84
892.76	1703.91
892.93	1591.27
893.10	1581.03
893.27	1710.05
893.44	1548.26
893.61	1572.84
893.79	1658.85
893.96	1626.09
894.13	1640.42
894.30	1587.18
894.47	1724.39
894.64	1744.87
894.81	1689.57
894.98	1642.47
895.15	1658.85
895.33	1667.05
895.50	1533.93
895.67	1597.42
895.84	1732.58
896.01	1658.85
896.18	1568.74
896.35	1703.91
896.52	1611.75
896.69	1572.84
896.86	1638.38
897.04	1679.33
897.21	1599.46
897.38	1597.42
897.55	1624.04
897.72	1722.34
897.89	1648.61
898.06	1689.57
898.23	1654.76
898.40	1726.44
898.57	1626.09
898.74	1630.18
898.91	1624.04
899.08	1624.04
899.26	1667.05
899.43	1728.49
899.60	1630.18
899.77	1652.71
899.94	1683.43
900.11	1689.57
900.28	1564.65
900.45	1714.15
900.62	1556.46
900.79	1712.10
900.96	1621.99
901.13	1587.18
901.30	1607.66
901.47	1515.50
901.64	1609.70
901.81	1667.05
901.98	1617.90
902.15	1652.71
902.32	1525.74
902.49	1691.62
902.66	1712.10
902.83	1671.14
903.01	1597.42
903.18	1624.04
903.35	1681.38
903.52	1705.96
903.69	1644.52
903.86	1658.85
904.03	1574.89
904.20	1685.48
904.37	1710.05
904.54	1533.93
904.71	1689.57
904.88	1605.61
905.05	1566.70
905.22	1650.66
905.39	1548.26
905.56	1628.14
905.73	1581.03
905.90	1611.75
906.07	1638.38
906.24	1677.29
906.41	1646.57
906.58	1689.57
906.75	1597.42
906.92	1556.46
907.09	1591.27
907.26	1611.75
907.43	1554.41
907.60	1638.38
907.77	1650.66
907.93	1667.05
908.10	1632.23
908.27	1703.91
908.44	1583.08
908.61	1529.83
908.78	1552.36
908.95	1759.21
909.12	1646.57
909.29	1646.57
909.46	1572.84
909.63	1667.05
909.80	1650.66
909.97	1714.15
910.14	1703.91
910.31	1589.22
910.48	1642.47
910.65	1646.57
910.82	1605.61
910.99	1673.19
911.16	1671.14
911.33	1603.56
911.50	1615.85
911.66	1640.42
911.83	1665.00
912.00	1638.38
912.17	1560.55
912.34	1546.22
912.51	1732.58
912.68	1624.04
912.85	1693.67
913.02	1699.81
913.19	1566.70
913.36	1687.53
913.53	1667.05
913.70	1628.14
913.86	1779.68
914.03	1679.33
914.20	1693.67
914.37	1626.09
914.54	1607.66
914.71	1683.43
914.88	1677.29
915.05	1658.85
915.22	1578.98
915.39	1624.04
915.55	1675.24
915.72	1591.27
915.89	1624.04
916.06	1630.18
916.23	1552.36
916.40	1654.76
916.57	1609.70
916.74	1712.10
916.91	1675.24
917.07	1570.79
917.24	1650.66
917.41	1650.66
917.58	1652.71
917.75	1568.74
917.92	1533.93
918.09	1646.57
918.26	1636.33
918.42	1665.00
918.59	1755.11
918.76	1601.51
918.93	1595.37
919.10	1632.23
919.27	1658.85
919.44	1757.16
919.60	1685.48
919.77	1560.55
919.94	1683.43
920.11	1642.47
920.28	1742.82
920.45	1576.94
920.61	1550.31
920.78	1585.13
920.95	1730.53
921.12	1525.74
921.29	1578.98
921.46	1531.88
921.62	1615.85
921.79	1685.48
921.96	1599.46
922.13	1671.14
922.30	1636.33
922.47	1576.94
922.63	1662.95
922.80	1636.33
922.97	1560.55
923.14	1542.12
923.31	1644.52
923.47	1624.04
923.64	1814.50
923.81	1609.70
923.98	1718.25
924.15	1603.56
924.32	1658.85
924.48	1689.57
924.65	1736.68
924.82	1445.87
924.99	1572.84
925.15	1589.22
925.32	1791.97
925.49	1644.52
925.66	1542.12
925.83	1646.57
925.99	1589.22
926.16	1652.71
926.33	1669.09
926.50	1585.13
926.67	1671.14
926.83	1642.47
927.00	1675.24
927.17	1644.52
927.34	1568.74
927.50	1683.43
927.67	1816.55
927.84	1695.72
928.01	1669.09
928.17	1681.38
928.34	1597.42
928.51	1595.37
928.68	1591.27
928.84	1675.24
929.01	1568.74
929.18	1607.66
929.35	1712.10
929.51	1617.90
929.68	1632.23
929.85	1601.51
930.02	1595.37
930.18	1658.85
930.35	1634.28
930.52	1667.05
930.69	1683.43
930.85	1712.10
931.02	1544.17
931.19	1675.24
931.36	1585.13
931.52	1619.94
931.69	1669.09
931.86	1671.14
932.02	1642.47
932.19	1589.22
932.36	1654.76
932.53	1677.29
932.69	1613.80
932.86	1718.25
933.03	1665.00
933.19	1578.98
933.36	1597.42
933.53	1755.11
933.70	1585.13
933.86	1791.97
934.03	1726.44
934.20	1570.79
934.36	1720.29
934.53	1562.60
934.70	1517.54
934.86	1677.29
935.03	1630.18
935.20	1667.05
935.36	1591.27
935.53	1574.89
935.70	1640.42
935.86	1624.04
936.03	1576.94
936.20	1587.18
936.36	1648.61
936.53	1640.42
936.70	1624.04
936.86	1818.60
937.03	1744.87
937.20	1597.42
937.36	1703.91
937.53	1601.51
937.70	1593.32
937.86	1595.37
938.03	1636.33
938.20	1697.77
938.36	1603.56
938.53	1767.40
938.70	1570.79
938.86	1591.27
939.03	1652.71
939.20	1568.74
939.36	1654.76
939.53	1665.00
939.70	1812.45
939.86	1624.04
940.03	1599.46
940.19	1601.51
940.36	1667.05
940.53	1611.75
940.69	1677.29
940.86	1691.62
941.03	1632.23
941.19	1548.26
941.36	1624.04
941.52	1712.10
941.69	1662.95
941.86	1619.94
942.02	1667.05
942.19	1669.09
942.35	1648.61
942.52	1626.09
942.69	1644.52
942.85	1597.42
943.02	1695.72
943.18	1665.00
943.35	1675.24
943.52	1558.50
943.68	1564.65
943.85	1691.62
944.01	1638.38
944.18	1673.19
944.35	1640.42
944.51	1593.32
944.68	1495.02
944.84	1648.61
945.01	1611.75
945.17	1578.98
945.34	1619.94
945.51	1736.68
945.67	1642.47
945.84	1562.60
946.00	1628.14
946.17	1626.09
946.33	1615.85
946.50	1683.43
946.67	1662.95
946.83	1601.51
947.00	1654.76
947.16	1603.56
947.33	1568.74
947.49	1638.38
947.66	1531.88
947.82	1652.71
947.99	1603.56
948.16	1699.81
948.32	1605.61
948.49	1710.05
948.65	1699.81
948.82	1658.85
948.98	1662.95
949.15	1574.89
949.31	1683.43
949.48	1652.71
949.64	1658.85
949.81	1605.61
949.97	1638.38
950.14	1732.58
950.30	1519.59
950.47	1609.70
950.63	1576.94
950.80	1650.66
950.96	1544.17
951.13	1591.27
951.30	1667.05
951.46	1642.47
951.63	1720.29
951.79	1552.36
951.96	1665.00
952.12	1589.22
952.29	1708.01
952.45	1599.46
952.62	1597.42
952.78	1740.77
952.94	1658.85
953.11	1544.17
953.27	1495.02
953.44	1800.16
953.60	1617.90
953.77	1710.05
953.93	1632.23
954.10	1564.65
954.26	1595.37
954.43	1617.90
954.59	1691.62
954.76	1697.77
954.92	1685.48
955.09	1646.57
955.25	1587.18
955.42	1636.33
955.58	1662.95
955.75	1619.94
955.91	1603.56
956.07	1581.03
956.24	1660.90
956.40	1638.38
956.57	1718.25
956.73	1597.42
956.90	1652.71
957.06	1609.70
957.23	1593.32
957.39	1560.55
957.56	1611.75
957.72	1509.35
957.88	1548.26
958.05	1609.70
958.21	1724.39
958.38	1681.38
958.54	1671.14
958.71	1689.57
958.87	1617.90
959.03	1656.81
959.20	1558.50
959.36	1581.03
959.53	1648.61
959.69	1568.74
959.85	1617.90
960.02	1511.40
960.18	1540.07
960.35	1621.99
960.51	1671.14
960.68	1564.65
960.84	1607.66
961.00	1601.51
961.17	1597.42
961.33	1662.95
961.50	1634.28
961.66	1695.72
961.82	1660.90
961.99	1601.51
962.15	1714.15
962.31	1552.36
962.48	1652.71
962.64	1734.63
962.81	1703.91
962.97	1611.75
963.13	1626.09
963.30	1656.81
963.46	1568.74
963.62	1556.46
963.79	1632.23
963.95	1556.46
964.12	1662.95
964.28	1660.90
964.44	1603.56
964.61	1605.61
964.77	1613.80
964.93	1834.98
965.10	1632.23
965.26	1570.79
965.42	1658.85
965.59	1560.55
965.75	1632.23
965.92	1560.55
966.08	1638.38
966.24	1730.53
966.41	1558.50
966.57	1691.62
966.73	1683.43
966.90	1640.42
967.06	1669.09
967.22	1599.46
967.39	1695.72
967.55	1683.43
967.71	1712.10
967.88	1644.52
968.04	1624.04
968.20	1603.56
968.37	1601.51
968.53	1613.80
968.69	1656.81
968.85	1681.38
969.02	1673.19
969.18	1763.30
969.34	1597.42
969.51	1638.38
969.67	1732.58
969.83	1558.50
970.00	1685.48
970.16	1566.70
970.32	1683.43
970.48	1736.68
970.65	1552.36
970.81	1638.38
970.97	1656.81
971.14	1515.50
971.30	1720.29
971.46	1564.65
971.63	1708.01
971.79	1712.10
971.95	1671.14
972.11	1550.31
972.28	1613.80
972.44	1628.14
972.60	1509.35
972.76	1652.71
972.93	1587.18
973.09	1652.71
973.25	1640.42
973.42	1593.32
973.58	1681.38
973.74	1642.47
973.90	1708.01
974.07	1599.46
974.23	1630.18
974.39	1642.47
974.55	1605.61
974.72	1585.13
974.88	1505.26
975.04	1689.57
975.20	1675.24
975.37	1673.19
975.53	1644.52
975.69	1687.53
975.85	1517.54
976.01	1597.42
976.18	1548.26
976.34	1576.94
976.50	1650.66
976.66	1681.38
976.83	1603.56
976.99	1650.66
977.15	1628.14
977.31	1566.70
977.47	1718.25
977.64	1687.53
977.80	1576.94
977.96	1656.81
978.12	1679.33
978.29	1615.85
978.45	1560.55
978.61	1638.38
978.77	1665.00
978.93	1595.37
979.10	1648.61
979.26	1603.56
979.42	1646.57
979.58	1531.88
979.74	1593.32
979.91	1609.70
980.07	1550.31
980.23	1667.05
980.39	1583.08
980.55	1652.71
980.71	1628.14
980.88	1574.89
981.04	1630.18
981.20	1687.53
981.36	1722.34
981.52	1667.05
981.68	1533.93
981.85	1667.05
982.01	1712.10
982.17	1630.18
982.33	1712.10
982.49	1609.70
982.65	1601.51
982.82	1605.61
982.98	1607.66
983.14	1513.45
983.30	1644.52
983.46	1607.66
983.62	1689.57
983.79	1638.38
983.95	1566.70
984.11	1527.78
984.27	1564.65
984.43	1550.31
984.59	1572.84
984.75	1628.14
984.91	1634.28
985.08	1714.15
985.24	1511.40
985.40	1628.14
985.56	1654.76
985.72	1621.99
985.88	1728.49
986.04	1517.54
986.20	1619.94
986.37	1662.95
986.53	1603.56
986.69	1646.57
986.85	1566.70
987.01	1611.75
987.17	1705.96
987.33	1609.70
987.49	1511.40
987.65	1732.58
987.82	1648.61
987.98	1521.64
988.14	1583.08
988.30	1689.57
988.46	1638.38
988.62	1591.27
988.78	1619.94
988.94	1646.57
989.10	1632.23
989.26	1636.33
989.42	1626.09
989.59	1574.89
989.75	1656.81
989.91	1710.05
990.07	1529.83
990.23	1593.32
990.39	1691.62
990.55	1716.20
990.71	1611.75
990.87	1642.47
991.03	1689.57
991.19	1535.98
991.35	1562.60
991.51	1675.24
991.67	1630.18
991.83	1556.46
992.00	1599.46
992.16	1691.62
992.32	1611.75
992.48	1615.85
992.64	1581.03
992.80	1679.33
992.96	1576.94
993.12	1585.13
993.28	1658.85
993.44	1624.04
993.60	1667.05
993.76	1568.74
993.92	1683.43
994.08	1652.71
994.24	1669.09
994.40	1665.00
994.56	1658.85
994.72	1503.21
994.88	1581.03
995.04	1710.05
995.20	1538.02
995.36	1548.26
995.52	1687.53
995.68	1621.99
995.84	1521.64
996.00	1712.10
996.16	1597.42
996.32	1597.42
996.48	1529.83
996.64	1687.53
996.80	1675.24
996.96	1609.70
997.12	1535.98
997.28	1597.42
997.44	1542.12
997.60	1574.89
997.76	1609.70
997.92	1646.57
998.08	1595.37
998.24	1548.26
998.40	1669.09
998.56	1683.43
998.72	1521.64
998.88	1564.65
999.04	1630.18
999.20	1687.53
999.36	1597.42
999.52	1695.72
999.68	1630.18
999.84	1744.87
1000.00	1632.23
1000.16	1681.38
1000.32	1656.81
1000.48	1746.92
1000.64	1548.26
1000.80	1548.26
1000.95	1566.70
1001.11	1609.70
1001.27	1597.42
1001.43	1611.75
1001.59	1585.13
1001.75	1568.74
1001.91	1667.05
1002.07	1589.22
1002.23	1550.31
1002.39	1591.27
1002.55	1660.90
1002.71	1607.66
1002.87	1591.27
1003.03	1578.98
1003.19	1562.60
1003.34	1650.66
1003.50	1589.22
1003.66	1730.53
1003.82	1683.43
1003.98	1626.09
1004.14	1611.75
1004.30	1605.61
1004.46	1626.09
1004.62	1583.08
1004.78	1566.70
1004.94	1609.70
1005.09	1662.95
1005.25	1681.38
1005.41	1558.50
1005.57	1636.33
1005.73	1587.18
1005.89	1488.87
1006.05	1626.09
1006.21	1654.76
1006.37	1468.39
1006.52	1544.17
1006.68	1640.42
1006.84	1724.39
1007.00	1564.65
1007.16	1716.20
1007.32	1597.42
1007.48	1628.14
1007.64	1708.01
1007.79	1583.08
1007.95	1548.26
1008.11	1634.28
1008.27	1568.74
1008.43	1593.32
1008.59	1558.50
1008.75	1632.23
1008.91	1624.04
1009.06	1609.70
1009.22	1650.66
1009.38	1607.66
1009.54	1642.47
1009.70	1687.53
1009.86	1605.61
1010.01	1644.52
1010.17	1578.98
1010.33	1570.79
1010.49	1615.85
1010.65	1685.48
1010.81	1581.03
1010.96	1646.57
1011.12	1568.74
1011.28	1550.31
1011.44	1708.01
1011.60	1576.94
1011.76	1650.66
1011.91	1705.96
1012.07	1583.08
1012.23	1554.41
1012.39	1550.31
1012.55	1640.42
1012.71	1572.84
1012.86	1550.31
1013.02	1601.51
1013.18	1601.51
1013.34	1589.22
1013.50	1650.66
1013.65	1642.47
1013.81	1546.22
1013.97	1662.95
1014.13	1710.05
1014.29	1591.27
1014.44	1675.24
1014.60	1587.18
1014.76	1581.03
1014.92	1599.46
1015.07	1599.46
1015.23	1617.90
1015.39	1658.85
1015.55	1558.50
1015.71	1648.61
1015.86	1570.79
1016.02	1609.70
1016.18	1533.93
1016.34	1611.75
1016.49	1597.42
1016.65	1695.72
1016.81	1585.13
1016.97	1597.42
1017.12	1640.42
1017.28	1576.94
1017.44	1585.13
1017.60	1593.32
1017.75	1632.23
1017.91	1624.04
1018.07	1646.57
1018.23	1576.94
1018.38	1607.66
1018.54	1607.66
1018.70	1628.14
1018.86	1597.42
1019.01	1552.36
1019.17	1675.24
1019.33	1638.38
1019.49	1630.18
1019.64	1568.74
1019.80	1615.85
1019.96	1679.33
1020.12	1599.46
1020.27	1589.22
1020.43	1595.37
1020.59	1617.90
1020.74	1650.66
1020.90	1640.42
1021.06	1605.61
1021.22	1605.61
1021.37	1624.04
1021.53	1572.84
1021.69	1646.57
1021.84	1535.98
1022.00	1632.23
1022.16	1683.43
1022.31	1638.38
1022.47	1683.43
1022.63	1656.81
1022.79	1562.60
1022.94	1621.99
1023.10	1683.43
1023.26	1667.05
1023.41	1624.04
1023.57	1544.17
1023.73	1593.32
1023.88	1673.19
1024.04	1587.18
1024.20	1572.84
1024.35	1605.61
1024.51	1658.85
1024.67	1601.51
1024.82	1650.66
1024.98	1583.08
1025.14	1566.70
1025.29	1544.17
1025.45	1693.67
1025.61	1605.61
1025.76	1617.90
1025.92	1576.94
1026.08	1662.95
1026.23	1658.85
1026.39	1642.47
1026.55	1585.13
1026.70	1568.74
1026.86	1558.50
1027.02	1576.94
1027.17	1628.14
1027.33	1603.56
1027.48	1589.22
1027.64	1638.38
1027.80	1570.79
1027.95	1667.05
1028.11	1546.22
1028.27	1615.85
1028.42	1607.66
1028.58	1591.27
1028.73	1605.61
1028.89	1513.45
1029.05	1744.87
1029.20	1642.47
>>>>>End Processed Spectral Data<<<<<
