SpectraSuite Data File
++++++++++++++++++++++++++++++++++++
Date: Fri Jun 02 14:51:05 CEST 2017
User: INFO_000
Dark Spectrum Present: No
Reference Spectrum Present: No
Number of Sampled Component Spectra: 1
Spectrometers: USB4H00879
Integration Time (usec): 80000 (USB4H00879)
Spectra Averaged: 1 (USB4H00879)
Boxcar Smoothing: 0 (USB4H00879)
Correct for Electrical Dark: No (USB4H00879)
Strobe/Lamp Enabled: No (USB4H00879)
Correct for Detector Non-linearity: No (USB4H00879)
Correct for Stray Light: No (USB4H00879)
Number of Pixels in Processed Spectrum: 3648
>>>>>Begin Processed Spectral Data<<<<<
345.13	1273.84
345.34	1273.84
345.56	1273.84
345.78	1302.51
345.99	1247.21
346.21	1675.24
346.42	1642.47
346.64	1675.24
346.86	1761.25
347.07	1626.09
347.29	1632.23
347.50	1607.66
347.72	1785.83
347.94	1720.29
348.15	1568.74
348.37	1601.51
348.59	1677.29
348.80	1665.00
349.02	1697.77
349.23	1783.78
349.45	1712.10
349.67	1779.68
349.88	1699.81
350.10	1871.84
350.31	1662.95
350.53	1675.24
350.75	1800.16
350.96	1730.53
351.18	1802.21
351.39	1761.25
351.61	1683.43
351.82	1763.30
352.04	1755.11
352.26	1685.48
352.47	1796.07
352.69	1691.62
352.90	1636.33
353.12	1695.72
353.34	1675.24
353.55	1734.63
353.77	1759.21
353.98	1722.34
354.20	1701.86
354.41	1779.68
354.63	1775.59
354.85	1875.94
355.06	1728.49
355.28	1648.61
355.49	1740.77
355.71	1781.73
355.92	1701.86
356.14	1765.35
356.35	1695.72
356.57	1697.77
356.79	1716.20
357.00	1691.62
357.22	1740.77
357.43	1691.62
357.65	1755.11
357.86	1650.66
358.08	1671.14
358.29	1773.54
358.51	1798.12
358.72	1828.84
358.94	1677.29
359.16	1714.15
359.37	1789.92
359.59	1748.97
359.80	1794.02
360.02	1693.67
360.23	1703.91
360.45	1738.73
360.66	1648.61
360.88	1654.76
361.09	1683.43
361.31	1781.73
361.52	1683.43
361.74	1789.92
361.95	1763.30
362.17	1660.90
362.38	1888.23
362.60	1810.40
362.81	1751.01
363.03	1648.61
363.24	1708.01
363.46	1759.21
363.67	1785.83
363.89	1746.92
364.10	1697.77
364.32	1699.81
364.53	1839.08
364.75	1609.70
364.96	1759.21
365.18	1808.36
365.39	1683.43
365.61	1691.62
365.82	1796.07
366.04	1697.77
366.25	1581.03
366.47	1677.29
366.68	1712.10
366.90	1607.66
367.11	1742.82
367.33	1794.02
367.54	1738.73
367.76	1730.53
367.97	1736.68
368.19	1646.57
368.40	1667.05
368.62	1695.72
368.83	1658.85
369.05	1667.05
369.26	1617.90
369.48	1658.85
369.69	1685.48
369.91	1652.71
370.12	1679.33
370.33	1691.62
370.55	1646.57
370.76	1705.96
370.98	1757.16
371.19	1710.05
371.41	1601.51
371.62	1748.97
371.84	1642.47
372.05	1787.88
372.27	1785.83
372.48	1701.86
372.69	1800.16
372.91	1851.36
373.12	1732.58
373.34	1673.19
373.55	1697.77
373.77	1755.11
373.98	1703.91
374.20	1779.68
374.41	1785.83
374.62	1648.61
374.84	1722.34
375.05	1785.83
375.27	1683.43
375.48	1679.33
375.70	1720.29
375.91	1781.73
376.12	1812.45
376.34	1605.61
376.55	1644.52
376.77	1798.12
376.98	1667.05
377.19	1652.71
377.41	1685.48
377.62	1697.77
377.84	1777.64
378.05	1820.64
378.27	1660.90
378.48	1701.86
378.69	1853.41
378.91	1765.35
379.12	1703.91
379.34	1746.92
379.55	1755.11
379.76	1753.06
379.98	1716.20
380.19	1650.66
380.41	1714.15
380.62	1777.64
380.83	1656.81
381.05	1699.81
381.26	1853.41
381.47	1597.42
381.69	1746.92
381.90	1816.55
382.12	1687.53
382.33	1712.10
382.54	1658.85
382.76	1705.96
382.97	1720.29
383.19	1652.71
383.40	1732.58
383.61	1726.44
383.83	1585.13
384.04	1658.85
384.25	1699.81
384.47	1681.38
384.68	1744.87
384.89	1650.66
385.11	1646.57
385.32	1675.24
385.54	1671.14
385.75	1662.95
385.96	1681.38
386.18	1699.81
386.39	1677.29
386.60	1589.22
386.82	1654.76
387.03	1689.57
387.24	1734.63
387.46	1662.95
387.67	1675.24
387.88	1779.68
388.10	1675.24
388.31	1673.19
388.52	1697.77
388.74	1734.63
388.95	1695.72
389.16	1722.34
389.38	1630.18
389.59	1789.92
389.80	1775.59
390.02	1732.58
390.23	1736.68
390.44	1761.25
390.66	1710.05
390.87	1593.32
391.08	1779.68
391.30	1742.82
391.51	1787.88
391.72	1742.82
391.94	1755.11
392.15	1720.29
392.36	1689.57
392.58	1658.85
392.79	1789.92
393.00	1757.16
393.22	1763.30
393.43	1677.29
393.64	1761.25
393.85	1785.83
394.07	1728.49
394.28	1667.05
394.49	1755.11
394.71	1724.39
394.92	1800.16
395.13	1630.18
395.35	1726.44
395.56	1626.09
395.77	1734.63
395.98	1642.47
396.20	1726.44
396.41	1777.64
396.62	1738.73
396.84	1779.68
397.05	1675.24
397.26	1724.39
397.47	1783.78
397.69	1677.29
397.90	1769.44
398.11	1802.21
398.32	1656.81
398.54	1675.24
398.75	1705.96
398.96	1675.24
399.18	1886.18
399.39	1669.09
399.60	1736.68
399.81	1667.05
400.03	1560.55
400.24	1972.19
400.45	1681.38
400.66	1738.73
400.88	1716.20
401.09	1834.98
401.30	1730.53
401.51	1789.92
401.73	1834.98
401.94	1738.73
402.15	1689.57
402.36	1734.63
402.58	1708.01
402.79	1761.25
403.00	1658.85
403.21	1722.34
403.43	1716.20
403.64	1669.09
403.85	1648.61
404.06	1759.21
404.27	1550.31
404.49	1662.95
404.70	1744.87
404.91	1787.88
405.12	1722.34
405.34	1744.87
405.55	1855.46
405.76	1628.14
405.97	1732.58
406.19	1880.04
406.40	1621.99
406.61	1736.68
406.82	1679.33
407.03	1624.04
407.25	1691.62
407.46	1824.74
407.67	1796.07
407.88	1791.97
408.09	1705.96
408.31	1691.62
408.52	1777.64
408.73	1667.05
408.94	1648.61
409.15	1656.81
409.37	1716.20
409.58	1767.40
409.79	1701.86
410.00	1789.92
410.21	1642.47
410.43	1699.81
410.64	1665.00
410.85	1757.16
411.06	1675.24
411.27	1765.35
411.48	1777.64
411.70	1767.40
411.91	1716.20
412.12	1802.21
412.33	1851.36
412.54	1712.10
412.76	1734.63
412.97	1777.64
413.18	1703.91
413.39	1740.77
413.60	1753.06
413.81	1701.86
414.03	1687.53
414.24	1646.57
414.45	1820.64
414.66	1581.03
414.87	1703.91
415.08	1740.77
415.30	1751.01
415.51	1748.97
415.72	1650.66
415.93	1714.15
416.14	1650.66
416.35	1718.25
416.56	1765.35
416.78	1699.81
416.99	1714.15
417.20	1763.30
417.41	1712.10
417.62	1734.63
417.83	1710.05
418.04	1687.53
418.26	1761.25
418.47	1738.73
418.68	1746.92
418.89	1796.07
419.10	1865.70
419.31	1785.83
419.52	1718.25
419.73	1660.90
419.95	1775.59
420.16	1685.48
420.37	1687.53
420.58	1796.07
420.79	1617.90
421.00	1728.49
421.21	1744.87
421.42	1650.66
421.63	1665.00
421.85	1654.76
422.06	1701.86
422.27	1660.90
422.48	1671.14
422.69	1660.90
422.90	1660.90
423.11	1654.76
423.32	1830.88
423.53	1755.11
423.75	1732.58
423.96	1796.07
424.17	1746.92
424.38	1814.50
424.59	1755.11
424.80	1679.33
425.01	1699.81
425.22	1513.45
425.43	1681.38
425.64	1816.55
425.85	1781.73
426.06	1718.25
426.28	1673.19
426.49	1646.57
426.70	1619.94
426.91	1710.05
427.12	1705.96
427.33	1697.77
427.54	1714.15
427.75	1662.95
427.96	1796.07
428.17	1748.97
428.38	1746.92
428.59	1748.97
428.80	1673.19
429.01	1681.38
429.23	1703.91
429.44	1679.33
429.65	1699.81
429.86	1677.29
430.07	1761.25
430.28	1630.18
430.49	1708.01
430.70	1746.92
430.91	1767.40
431.12	1671.14
431.33	1667.05
431.54	1767.40
431.75	1703.91
431.96	1576.94
432.17	1716.20
432.38	1751.01
432.59	1796.07
432.80	1773.54
433.01	1720.29
433.22	1697.77
433.43	1726.44
433.64	1716.20
433.85	1853.41
434.06	1759.21
434.27	1626.09
434.49	1699.81
434.70	1757.16
434.91	1675.24
435.12	1656.81
435.33	1597.42
435.54	1746.92
435.75	1658.85
435.96	1683.43
436.17	1658.85
436.38	1816.55
436.59	1753.06
436.80	1601.51
437.01	1744.87
437.22	1761.25
437.43	1757.16
437.64	1681.38
437.85	1712.10
438.06	1675.24
438.27	1671.14
438.48	1673.19
438.69	1744.87
438.90	1644.52
439.11	1691.62
439.32	1806.31
439.53	1632.23
439.74	1667.05
439.95	1757.16
440.16	1591.27
440.37	1726.44
440.57	1613.80
440.78	1751.01
440.99	1732.58
441.20	1697.77
441.41	1626.09
441.62	1607.66
441.83	1636.33
442.04	1650.66
442.25	1734.63
442.46	1681.38
442.67	1665.00
442.88	1806.31
443.09	1662.95
443.30	1671.14
443.51	1642.47
443.72	1701.86
443.93	1693.67
444.14	1691.62
444.35	1638.38
444.56	1714.15
444.77	1642.47
444.98	1703.91
445.19	1716.20
445.40	1665.00
445.61	1679.33
445.81	1660.90
446.02	1765.35
446.23	1628.14
446.44	1734.63
446.65	1791.97
446.86	1744.87
447.07	1810.40
447.28	1738.73
447.49	1693.67
447.70	1634.28
447.91	1734.63
448.12	1642.47
448.33	1722.34
448.54	1626.09
448.74	1658.85
448.95	1607.66
449.16	1757.16
449.37	1798.12
449.58	1687.53
449.79	1720.29
450.00	1748.97
450.21	1708.01
450.42	1673.19
450.63	1683.43
450.84	1617.90
451.05	1705.96
451.25	1660.90
451.46	1658.85
451.67	1738.73
451.88	1691.62
452.09	1654.76
452.30	1652.71
452.51	1603.56
452.72	1765.35
452.93	1816.55
453.13	1662.95
453.34	1581.03
453.55	1730.53
453.76	1697.77
453.97	1654.76
454.18	1628.14
454.39	1712.10
454.60	1597.42
454.81	1699.81
455.01	1724.39
455.22	1624.04
455.43	1634.28
455.64	1689.57
455.85	1675.24
456.06	1763.30
456.27	1708.01
456.48	1656.81
456.68	1705.96
456.89	1724.39
457.10	1642.47
457.31	1699.81
457.52	1722.34
457.73	1599.46
457.94	1765.35
458.14	1509.35
458.35	1775.59
458.56	1708.01
458.77	1705.96
458.98	1662.95
459.19	1687.53
459.39	1634.28
459.60	1697.77
459.81	1628.14
460.02	1683.43
460.23	1665.00
460.44	1617.90
460.65	1710.05
460.85	1681.38
461.06	1669.09
461.27	1626.09
461.48	1675.24
461.69	1654.76
461.89	1581.03
462.10	1691.62
462.31	1599.46
462.52	1648.61
462.73	1613.80
462.94	1755.11
463.14	1626.09
463.35	1740.77
463.56	1806.31
463.77	1691.62
463.98	1646.57
464.18	1671.14
464.39	1748.97
464.60	1794.02
464.81	1626.09
465.02	1767.40
465.23	1740.77
465.43	1716.20
465.64	1728.49
465.85	1572.84
466.06	1716.20
466.27	1724.39
466.47	1732.58
466.68	1789.92
466.89	1558.50
467.10	1566.70
467.30	1624.04
467.51	1714.15
467.72	1796.07
467.93	1613.80
468.14	1736.68
468.34	1624.04
468.55	1710.05
468.76	1837.03
468.97	1677.29
469.17	1703.91
469.38	1748.97
469.59	1716.20
469.80	1667.05
470.01	1755.11
470.21	1738.73
470.42	1605.61
470.63	1720.29
470.84	1779.68
471.04	1691.62
471.25	1812.45
471.46	1736.68
471.67	1730.53
471.87	1695.72
472.08	1728.49
472.29	1714.15
472.50	1753.06
472.70	1640.42
472.91	1652.71
473.12	1585.13
473.33	1652.71
473.53	1783.78
473.74	1716.20
473.95	1621.99
474.16	1683.43
474.36	1624.04
474.57	1787.88
474.78	1677.29
474.99	1734.63
475.19	1650.66
475.40	1667.05
475.61	1789.92
475.81	1746.92
476.02	1716.20
476.23	1765.35
476.44	1648.61
476.64	1667.05
476.85	1699.81
477.06	1695.72
477.27	1642.47
477.47	1697.77
477.68	1724.39
477.89	1689.57
478.09	1710.05
478.30	1718.25
478.51	1675.24
478.71	1724.39
478.92	1730.53
479.13	1757.16
479.34	1605.61
479.54	1712.10
479.75	1650.66
479.96	1660.90
480.16	1744.87
480.37	1642.47
480.58	1689.57
480.78	1791.97
480.99	1581.03
481.20	1714.15
481.41	1789.92
481.61	1794.02
481.82	1783.78
482.03	1685.48
482.23	1634.28
482.44	1773.54
482.65	1828.84
482.85	1708.01
483.06	1701.86
483.27	1724.39
483.47	1736.68
483.68	1724.39
483.89	1697.77
484.09	1695.72
484.30	1697.77
484.51	1765.35
484.71	1708.01
484.92	1619.94
485.13	1687.53
485.33	1677.29
485.54	1617.90
485.75	1716.20
485.95	1781.73
486.16	1654.76
486.37	1699.81
486.57	1701.86
486.78	1652.71
486.98	1732.58
487.19	1660.90
487.40	1777.64
487.60	1638.38
487.81	1703.91
488.02	1718.25
488.22	1714.15
488.43	1734.63
488.64	1683.43
488.84	1681.38
489.05	1791.97
489.25	1632.23
489.46	1710.05
489.67	1669.09
489.87	1755.11
490.08	1708.01
490.29	1595.37
490.49	1759.21
490.70	1732.58
490.90	1730.53
491.11	1617.90
491.32	1652.71
491.52	1640.42
491.73	1726.44
491.94	1767.40
492.14	1613.80
492.35	1722.34
492.55	1755.11
492.76	1601.51
492.97	1566.70
493.17	1693.67
493.38	1736.68
493.58	1802.21
493.79	1732.58
494.00	1722.34
494.20	1673.19
494.41	1773.54
494.61	1755.11
494.82	1665.00
495.02	1665.00
495.23	1748.97
495.44	1679.33
495.64	1744.87
495.85	1685.48
496.05	1701.86
496.26	1708.01
496.47	1671.14
496.67	1716.20
496.88	1781.73
497.08	1626.09
497.29	1652.71
497.49	1722.34
497.70	1679.33
497.91	1656.81
498.11	1847.27
498.32	1732.58
498.52	1800.16
498.73	1710.05
498.93	1681.38
499.14	1765.35
499.34	1785.83
499.55	1732.58
499.76	1624.04
499.96	1773.54
500.17	1740.77
500.37	1767.40
500.58	1697.77
500.78	1617.90
500.99	1650.66
501.19	1658.85
501.40	1746.92
501.60	1638.38
501.81	1654.76
502.02	1748.97
502.22	1703.91
502.43	1724.39
502.63	1824.74
502.84	1751.01
503.04	1660.90
503.25	1740.77
503.45	1708.01
503.66	1648.61
503.86	1748.97
504.07	1697.77
504.27	1550.31
504.48	1710.05
504.68	1611.75
504.89	1800.16
505.09	1593.32
505.30	1652.71
505.50	1699.81
505.71	1679.33
505.91	1777.64
506.12	1646.57
506.32	1791.97
506.53	1599.46
506.73	1619.94
506.94	1699.81
507.14	1681.38
507.35	1806.31
507.55	1734.63
507.76	1671.14
507.96	1681.38
508.17	1714.15
508.37	1589.22
508.58	1705.96
508.78	1769.44
508.99	1816.55
509.19	1759.21
509.40	1689.57
509.60	1691.62
509.81	1695.72
510.01	1628.14
510.22	1650.66
510.42	1669.09
510.63	1826.79
510.83	1650.66
511.04	1695.72
511.24	1757.16
511.44	1705.96
511.65	1710.05
511.85	1751.01
512.06	1667.05
512.26	1667.05
512.47	1728.49
512.67	1638.38
512.88	1845.22
513.08	1607.66
513.29	1732.58
513.49	1638.38
513.69	1732.58
513.90	1636.33
514.10	1753.06
514.31	1732.58
514.51	1564.65
514.72	1757.16
514.92	1697.77
515.13	1669.09
515.33	1650.66
515.53	1615.85
515.74	1658.85
515.94	1740.77
516.15	1857.51
516.35	1613.80
516.56	1699.81
516.76	1611.75
516.96	1687.53
517.17	1681.38
517.37	1691.62
517.58	1593.32
517.78	1646.57
517.99	1748.97
518.19	1761.25
518.39	1837.03
518.60	1751.01
518.80	1585.13
519.01	1746.92
519.21	1695.72
519.41	1746.92
519.62	1679.33
519.82	1716.20
520.03	1656.81
520.23	1624.04
520.43	1599.46
520.64	1808.36
520.84	1843.17
521.05	1624.04
521.25	1716.20
521.45	1728.49
521.66	1697.77
521.86	1650.66
522.07	1687.53
522.27	1703.91
522.47	1634.28
522.68	1687.53
522.88	1703.91
523.08	1771.49
523.29	1593.32
523.49	1712.10
523.70	1648.61
523.90	1652.71
524.10	1675.24
524.31	1693.67
524.51	1626.09
524.71	1771.49
524.92	1773.54
525.12	1576.94
525.33	1738.73
525.53	1714.15
525.73	1775.59
525.94	1689.57
526.14	1669.09
526.34	1728.49
526.55	1757.16
526.75	1640.42
526.95	1841.12
527.16	1634.28
527.36	1732.58
527.56	1767.40
527.77	1591.27
527.97	1708.01
528.17	1765.35
528.38	1718.25
528.58	1703.91
528.78	1675.24
528.99	1648.61
529.19	1738.73
529.39	1667.05
529.60	1621.99
529.80	1708.01
530.00	1609.70
530.21	1656.81
530.41	1695.72
530.61	1802.21
530.82	1665.00
531.02	1710.05
531.22	1744.87
531.43	1708.01
531.63	1681.38
531.83	1658.85
532.04	1683.43
532.24	1687.53
532.44	1656.81
532.64	1791.97
532.85	1609.70
533.05	1738.73
533.25	1665.00
533.46	1665.00
533.66	1703.91
533.86	1753.06
534.07	1736.68
534.27	1708.01
534.47	1808.36
534.67	1773.54
534.88	1726.44
535.08	1691.62
535.28	1720.29
535.49	1708.01
535.69	1732.58
535.89	1722.34
536.09	1748.97
536.30	1738.73
536.50	1681.38
536.70	1781.73
536.91	1613.80
537.11	1785.83
537.31	1726.44
537.51	1693.67
537.72	1738.73
537.92	1667.05
538.12	1660.90
538.32	1744.87
538.53	1708.01
538.73	1630.18
538.93	1701.86
539.13	1699.81
539.34	1783.78
539.54	1712.10
539.74	1771.49
539.94	1695.72
540.15	1765.35
540.35	1638.38
540.55	1654.76
540.75	1660.90
540.96	1738.73
541.16	1689.57
541.36	1714.15
541.56	1689.57
541.77	1748.97
541.97	1789.92
542.17	1650.66
542.37	1830.88
542.58	1847.27
542.78	1728.49
542.98	1697.77
543.18	1746.92
543.38	1763.30
543.59	1781.73
543.79	1673.19
543.99	1665.00
544.19	1634.28
544.40	1763.30
544.60	1722.34
544.80	1705.96
545.00	1628.14
545.20	1667.05
545.41	1683.43
545.61	1648.61
545.81	1732.58
546.01	1673.19
546.21	1732.58
546.42	1683.43
546.62	1710.05
546.82	1597.42
547.02	1662.95
547.22	1691.62
547.43	1777.64
547.63	1746.92
547.83	1673.19
548.03	1650.66
548.23	1720.29
548.44	1753.06
548.64	1640.42
548.84	1685.48
549.04	1597.42
549.24	1685.48
549.45	1744.87
549.65	1626.09
549.85	1714.15
550.05	1781.73
550.25	1583.08
550.45	1824.74
550.66	1738.73
550.86	1650.66
551.06	1726.44
551.26	1712.10
551.46	1697.77
551.66	1740.77
551.87	1691.62
552.07	1693.67
552.27	1716.20
552.47	1787.88
552.67	1695.72
552.87	1689.57
553.07	1716.20
553.28	1710.05
553.48	1708.01
553.68	1554.41
553.88	1773.54
554.08	1800.16
554.28	1646.57
554.48	1720.29
554.69	1751.01
554.89	1636.33
555.09	1681.38
555.29	1665.00
555.49	1734.63
555.69	1689.57
555.89	1677.29
556.10	1654.76
556.30	1679.33
556.50	1734.63
556.70	1652.71
556.90	1724.39
557.10	1804.26
557.30	1669.09
557.50	1644.52
557.70	1732.58
557.91	1669.09
558.11	1624.04
558.31	1771.49
558.51	1691.62
558.71	1720.29
558.91	1708.01
559.11	1660.90
559.31	1665.00
559.51	1705.96
559.72	1765.35
559.92	1683.43
560.12	1628.14
560.32	1748.97
560.52	1708.01
560.72	1654.76
560.92	1736.68
561.12	1732.58
561.32	1691.62
561.52	1699.81
561.72	1839.08
561.93	1744.87
562.13	1654.76
562.33	1654.76
562.53	1765.35
562.73	1650.66
562.93	1769.44
563.13	1775.59
563.33	1742.82
563.53	1796.07
563.73	1757.16
563.93	1757.16
564.13	1789.92
564.33	1746.92
564.53	1703.91
564.74	1683.43
564.94	1624.04
565.14	1728.49
565.34	1679.33
565.54	1683.43
565.74	1636.33
565.94	1794.02
566.14	1593.32
566.34	1755.11
566.54	1738.73
566.74	1677.29
566.94	1722.34
567.14	1802.21
567.34	1697.77
567.54	1736.68
567.74	1667.05
567.94	1697.77
568.14	1683.43
568.34	1748.97
568.54	1642.47
568.74	1767.40
568.94	1787.88
569.14	1775.59
569.34	1738.73
569.54	1662.95
569.75	1699.81
569.95	1718.25
570.15	1726.44
570.35	1683.43
570.55	1662.95
570.75	1654.76
570.95	1665.00
571.15	1726.44
571.35	1720.29
571.55	1669.09
571.75	1765.35
571.95	1705.96
572.15	1673.19
572.35	1708.01
572.55	1712.10
572.75	1630.18
572.95	1597.42
573.15	1665.00
573.35	1720.29
573.55	1687.53
573.75	1712.10
573.95	1783.78
574.15	1744.87
574.35	1748.97
574.55	1568.74
574.75	1662.95
574.95	1621.99
575.15	1636.33
575.34	1681.38
575.54	1685.48
575.74	1673.19
575.94	1673.19
576.14	1679.33
576.34	1763.30
576.54	1638.38
576.74	1839.08
576.94	1615.85
577.14	1642.47
577.34	1728.49
577.54	1701.86
577.74	1644.52
577.94	1714.15
578.14	1689.57
578.34	1798.12
578.54	1601.51
578.74	1708.01
578.94	1732.58
579.14	1761.25
579.34	1658.85
579.54	1705.96
579.74	1644.52
579.94	1640.42
580.13	1732.58
580.33	1683.43
580.53	1742.82
580.73	1685.48
580.93	1734.63
581.13	1615.85
581.33	1712.10
581.53	1689.57
581.73	1728.49
581.93	1667.05
582.13	1738.73
582.33	1716.20
582.53	1640.42
582.73	1785.83
582.92	1583.08
583.12	1665.00
583.32	1603.56
583.52	1730.53
583.72	1791.97
583.92	1755.11
584.12	1695.72
584.32	1712.10
584.52	1605.61
584.72	1599.46
584.92	1724.39
585.11	1738.73
585.31	1740.77
585.51	1621.99
585.71	1742.82
585.91	1822.69
586.11	1660.90
586.31	1712.10
586.51	1744.87
586.71	1765.35
586.91	1689.57
587.10	1853.41
587.30	1773.54
587.50	1669.09
587.70	1630.18
587.90	1691.62
588.10	1746.92
588.30	1740.77
588.50	1730.53
588.69	1626.09
588.89	1701.86
589.09	1847.27
589.29	1640.42
589.49	1636.33
589.69	1650.66
589.89	1740.77
590.08	1724.39
590.28	1656.81
590.48	1744.87
590.68	1736.68
590.88	1718.25
591.08	1712.10
591.28	1708.01
591.47	1734.63
591.67	1574.89
591.87	1654.76
592.07	1777.64
592.27	1527.78
592.47	1667.05
592.67	1798.12
592.86	1714.15
593.06	1708.01
593.26	1740.77
593.46	1650.66
593.66	1599.46
593.86	1802.21
594.05	1740.77
594.25	1658.85
594.45	1691.62
594.65	1804.26
594.85	1730.53
595.05	1726.44
595.24	1734.63
595.44	1654.76
595.64	1646.57
595.84	1722.34
596.04	1755.11
596.23	1685.48
596.43	1726.44
596.63	1677.29
596.83	1681.38
597.03	1734.63
597.22	1652.71
597.42	1722.34
597.62	1671.14
597.82	1740.77
598.02	1765.35
598.21	1652.71
598.41	1689.57
598.61	1779.68
598.81	1640.42
599.01	1736.68
599.20	1722.34
599.40	1644.52
599.60	1720.29
599.80	1734.63
600.00	1789.92
600.19	1763.30
600.39	1652.71
600.59	1699.81
600.79	1732.58
600.98	1773.54
601.18	1708.01
601.38	1777.64
601.58	1613.80
601.78	1789.92
601.97	1808.36
602.17	1708.01
602.37	1617.90
602.57	1705.96
602.76	1697.77
602.96	1658.85
603.16	1591.27
603.36	1736.68
603.55	1753.06
603.75	1695.72
603.95	1638.38
604.15	1773.54
604.34	1716.20
604.54	1736.68
604.74	1812.45
604.94	1689.57
605.13	1671.14
605.33	1601.51
605.53	1644.52
605.73	1716.20
605.92	1708.01
606.12	1636.33
606.32	1761.25
606.52	1720.29
606.71	1755.11
606.91	1652.71
607.11	1683.43
607.30	1757.16
607.50	1712.10
607.70	1843.17
607.90	1701.86
608.09	1601.51
608.29	1708.01
608.49	1822.69
608.68	1740.77
608.88	1652.71
609.08	1712.10
609.28	1634.28
609.47	1675.24
609.67	1736.68
609.87	1785.83
610.06	1781.73
610.26	1656.81
610.46	1746.92
610.66	1605.61
610.85	1675.24
611.05	1816.55
611.25	1638.38
611.44	1732.58
611.64	1724.39
611.84	1736.68
612.03	1626.09
612.23	1634.28
612.43	1796.07
612.62	1638.38
612.82	1675.24
613.02	1761.25
613.21	1734.63
613.41	1718.25
613.61	1685.48
613.80	1685.48
614.00	1726.44
614.20	1759.21
614.39	1847.27
614.59	1732.58
614.79	1646.57
614.98	1699.81
615.18	1740.77
615.38	1722.34
615.57	1650.66
615.77	1787.88
615.97	1691.62
616.16	1673.19
616.36	1779.68
616.56	1777.64
616.75	1677.29
616.95	1693.67
617.15	1800.16
617.34	1646.57
617.54	1810.40
617.74	1720.29
617.93	1798.12
618.13	1689.57
618.32	1716.20
618.52	1693.67
618.72	1748.97
618.91	1755.11
619.11	1746.92
619.31	1667.05
619.50	1703.91
619.70	1703.91
619.90	1781.73
620.09	1777.64
620.29	1732.58
620.48	1798.12
620.68	1703.91
620.88	1759.21
621.07	1822.69
621.27	1748.97
621.46	1742.82
621.66	1785.83
621.86	1701.86
622.05	1683.43
622.25	1789.92
622.44	1740.77
622.64	1650.66
622.84	1724.39
623.03	1695.72
623.23	1767.40
623.42	1718.25
623.62	1714.15
623.82	1777.64
624.01	1699.81
624.21	1796.07
624.40	1806.31
624.60	1648.61
624.80	1642.47
624.99	1746.92
625.19	1634.28
625.38	1662.95
625.58	1687.53
625.77	1748.97
625.97	1724.39
626.17	1589.22
626.36	1683.43
626.56	1679.33
626.75	1601.51
626.95	1755.11
627.14	1705.96
627.34	1648.61
627.54	1693.67
627.73	1800.16
627.93	1830.88
628.12	1679.33
628.32	1673.19
628.51	1695.72
628.71	1693.67
628.90	1771.49
629.10	1705.96
629.30	1693.67
629.49	1763.30
629.69	1669.09
629.88	1699.81
630.08	1763.30
630.27	1814.50
630.47	1800.16
630.66	1701.86
630.86	1748.97
631.05	1634.28
631.25	1712.10
631.44	1777.64
631.64	1667.05
631.84	1609.70
632.03	1787.88
632.23	1718.25
632.42	1669.09
632.62	1599.46
632.81	1703.91
633.01	1722.34
633.20	1834.98
633.40	1798.12
633.59	1703.91
633.79	1634.28
633.98	1753.06
634.18	1781.73
634.37	1757.16
634.57	1673.19
634.76	1611.75
634.96	1738.73
635.15	1875.94
635.35	1763.30
635.54	1703.91
635.74	1722.34
635.93	1634.28
636.13	1669.09
636.32	1845.22
636.52	1806.31
636.71	1611.75
636.91	1673.19
637.10	1712.10
637.30	1716.20
637.49	1710.05
637.69	1753.06
637.88	1691.62
638.08	1656.81
638.27	1689.57
638.46	1697.77
638.66	1718.25
638.85	1738.73
639.05	1701.86
639.24	1759.21
639.44	1783.78
639.63	1714.15
639.83	1748.97
640.02	1673.19
640.22	1642.47
640.41	1691.62
640.61	1734.63
640.80	1712.10
640.99	1681.38
641.19	1701.86
641.38	1849.32
641.58	1726.44
641.77	1794.02
641.97	1691.62
642.16	1628.14
642.36	1669.09
642.55	1720.29
642.74	1720.29
642.94	1708.01
643.13	1667.05
643.33	1746.92
643.52	1734.63
643.72	1802.21
643.91	1697.77
644.10	1839.08
644.30	1695.72
644.49	1683.43
644.69	1767.40
644.88	1660.90
645.08	1712.10
645.27	1716.20
645.46	1675.24
645.66	1755.11
645.85	1691.62
646.05	1826.79
646.24	1617.90
646.43	1689.57
646.63	1748.97
646.82	1689.57
647.02	1744.87
647.21	1898.47
647.40	1636.33
647.60	1656.81
647.79	1802.21
647.99	1691.62
648.18	1671.14
648.37	1755.11
648.57	1742.82
648.76	1665.00
648.96	1634.28
649.15	1751.01
649.34	1785.83
649.54	1734.63
649.73	1615.85
649.92	1726.44
650.12	1718.25
650.31	1660.90
650.51	1888.23
650.70	1740.77
650.89	1718.25
651.09	1761.25
651.28	1787.88
651.47	1581.03
651.67	1757.16
651.86	1841.12
652.06	1648.61
652.25	1701.86
652.44	1568.74
652.64	1804.26
652.83	1712.10
653.02	1748.97
653.22	1701.86
653.41	1619.94
653.60	1681.38
653.80	1644.52
653.99	1761.25
654.18	1714.15
654.38	1638.38
654.57	1785.83
654.76	1671.14
654.96	1728.49
655.15	1640.42
655.34	1748.97
655.54	1665.00
655.73	1712.10
655.92	1638.38
656.12	1699.81
656.31	1816.55
656.50	1781.73
656.70	1734.63
656.89	1673.19
657.08	1650.66
657.28	1703.91
657.47	1730.53
657.66	1638.38
657.86	1624.04
658.05	1724.39
658.24	1722.34
658.43	1753.06
658.63	1630.18
658.82	1705.96
659.01	1734.63
659.21	1740.77
659.40	1662.95
659.59	1708.01
659.79	1730.53
659.98	1853.41
660.17	1718.25
660.36	1673.19
660.56	1662.95
660.75	1748.97
660.94	1665.00
661.14	1697.77
661.33	1640.42
661.52	1679.33
661.71	1744.87
661.91	1644.52
662.10	1789.92
662.29	1609.70
662.49	1738.73
662.68	1712.10
662.87	1708.01
663.06	1679.33
663.26	1646.57
663.45	1824.74
663.64	1757.16
663.83	1785.83
664.03	1781.73
664.22	1757.16
664.41	1871.84
664.60	1773.54
664.80	1644.52
664.99	1767.40
665.18	1761.25
665.37	1746.92
665.57	1777.64
665.76	1685.48
665.95	1771.49
666.14	1701.86
666.34	1658.85
666.53	1693.67
666.72	1652.71
666.91	1695.72
667.11	1652.71
667.30	1789.92
667.49	1673.19
667.68	1759.21
667.87	1779.68
668.07	1755.11
668.26	1597.42
668.45	1572.84
668.64	1673.19
668.84	1748.97
669.03	1695.72
669.22	1828.84
669.41	1726.44
669.60	1621.99
669.80	1740.77
669.99	1689.57
670.18	1667.05
670.37	1830.88
670.57	1734.63
670.76	1660.90
670.95	1724.39
671.14	1675.24
671.33	1593.32
671.53	1781.73
671.72	1761.25
671.91	1732.58
672.10	1705.96
672.29	1693.67
672.48	1654.76
672.68	1662.95
672.87	1630.18
673.06	1667.05
673.25	1705.96
673.44	1693.67
673.64	1617.90
673.83	1734.63
674.02	1587.18
674.21	1824.74
674.40	1763.30
674.59	1744.87
674.79	1634.28
674.98	1748.97
675.17	1783.78
675.36	1564.65
675.55	1779.68
675.74	1646.57
675.94	1785.83
676.13	1742.82
676.32	1642.47
676.51	1667.05
676.70	1621.99
676.89	1708.01
677.08	1640.42
677.28	1796.07
677.47	1722.34
677.66	1613.80
677.85	1687.53
678.04	1710.05
678.23	1845.22
678.42	1634.28
678.62	1748.97
678.81	1732.58
679.00	1726.44
679.19	1781.73
679.38	1728.49
679.57	1683.43
679.76	1681.38
679.96	1595.37
680.15	1757.16
680.34	1609.70
680.53	1775.59
680.72	1744.87
680.91	1679.33
681.10	1712.10
681.29	1665.00
681.48	1710.05
681.68	1738.73
681.87	1816.55
682.06	1708.01
682.25	1751.01
682.44	1714.15
682.63	1748.97
682.82	1607.66
683.01	1679.33
683.20	1728.49
683.39	1773.54
683.59	1636.33
683.78	1728.49
683.97	1679.33
684.16	1613.80
684.35	1591.27
684.54	1705.96
684.73	1652.71
684.92	1673.19
685.11	1701.86
685.30	1679.33
685.49	1724.39
685.69	1802.21
685.88	1609.70
686.07	1611.75
686.26	1654.76
686.45	1656.81
686.64	1744.87
686.83	1683.43
687.02	1779.68
687.21	1779.68
687.40	1656.81
687.59	1863.65
687.78	1740.77
687.97	1818.60
688.16	1683.43
688.35	1679.33
688.54	1595.37
688.74	1578.98
688.93	1642.47
689.12	1689.57
689.31	1812.45
689.50	1779.68
689.69	1695.72
689.88	1744.87
690.07	1710.05
690.26	1662.95
690.45	1681.38
690.64	1714.15
690.83	1624.04
691.02	1646.57
691.21	1728.49
691.40	1626.09
691.59	1669.09
691.78	1777.64
691.97	1703.91
692.16	1673.19
692.35	1791.97
692.54	1751.01
692.73	1679.33
692.92	1742.82
693.11	1730.53
693.30	1740.77
693.49	1642.47
693.68	1810.40
693.87	1691.62
694.06	1644.52
694.25	1654.76
694.44	1677.29
694.63	1660.90
694.82	1624.04
695.01	1634.28
695.20	1724.39
695.39	1644.52
695.58	1679.33
695.77	1751.01
695.96	1732.58
696.15	1679.33
696.34	1695.72
696.53	1744.87
696.72	1662.95
696.91	1710.05
697.10	1740.77
697.29	1624.04
697.48	1791.97
697.67	1656.81
697.86	1640.42
698.05	1665.00
698.24	1634.28
698.43	1642.47
698.62	1703.91
698.81	1734.63
699.00	1732.58
699.19	1759.21
699.38	1665.00
699.57	1605.61
699.76	1681.38
699.95	1699.81
700.14	1648.61
700.32	1779.68
700.51	1673.19
700.70	1734.63
700.89	1806.31
701.08	1804.26
701.27	1624.04
701.46	1877.99
701.65	1767.40
701.84	1703.91
702.03	1615.85
702.22	1816.55
702.41	1767.40
702.60	1681.38
702.79	1685.48
702.98	1576.94
703.17	1753.06
703.35	1759.21
703.54	1685.48
703.73	1714.15
703.92	1712.10
704.11	1646.57
704.30	1759.21
704.49	1755.11
704.68	1673.19
704.87	1763.30
705.06	1828.84
705.25	1642.47
705.43	1638.38
705.62	1654.76
705.81	1746.92
706.00	1677.29
706.19	1755.11
706.38	1685.48
706.57	1771.49
706.76	1634.28
706.95	1660.90
707.14	1769.44
707.32	1720.29
707.51	1677.29
707.70	1634.28
707.89	1710.05
708.08	1716.20
708.27	1699.81
708.46	1703.91
708.65	1568.74
708.84	1613.80
709.02	1720.29
709.21	1634.28
709.40	1683.43
709.59	1722.34
709.78	1675.24
709.97	1642.47
710.16	1746.92
710.34	1738.73
710.53	1826.79
710.72	1660.90
710.91	1722.34
711.10	1671.14
711.29	1650.66
711.48	1703.91
711.66	1671.14
711.85	1665.00
712.04	1728.49
712.23	1703.91
712.42	1730.53
712.61	1773.54
712.80	1687.53
712.98	1685.48
713.17	1662.95
713.36	1691.62
713.55	1873.89
713.74	1759.21
713.93	1773.54
714.11	1662.95
714.30	1581.03
714.49	1804.26
714.68	1675.24
714.87	1679.33
715.06	1814.50
715.24	1777.64
715.43	1708.01
715.62	1634.28
715.81	1662.95
716.00	1587.18
716.18	1673.19
716.37	1716.20
716.56	1638.38
716.75	1763.30
716.94	1675.24
717.12	1658.85
717.31	1673.19
717.50	1628.14
717.69	1726.44
717.88	1656.81
718.06	1669.09
718.25	1775.59
718.44	1671.14
718.63	1714.15
718.82	1634.28
719.00	1656.81
719.19	1785.83
719.38	1652.71
719.57	1787.88
719.76	1650.66
719.94	1669.09
720.13	1677.29
720.32	1816.55
720.51	1724.39
720.69	1744.87
720.88	1728.49
721.07	1708.01
721.26	1771.49
721.44	1724.39
721.63	1705.96
721.82	1736.68
722.01	1785.83
722.20	1783.78
722.38	1738.73
722.57	1669.09
722.76	1716.20
722.95	1617.90
723.13	1703.91
723.32	1765.35
723.51	1654.76
723.70	1673.19
723.88	1703.91
724.07	1646.57
724.26	1773.54
724.44	1662.95
724.63	1806.31
724.82	1703.91
725.01	1654.76
725.19	1654.76
725.38	1650.66
725.57	1626.09
725.76	1757.16
725.94	1730.53
726.13	1679.33
726.32	1621.99
726.51	1675.24
726.69	1591.27
726.88	1714.15
727.07	1722.34
727.25	1667.05
727.44	1734.63
727.63	1626.09
727.82	1624.04
728.00	1697.77
728.19	1699.81
728.38	1609.70
728.56	1646.57
728.75	1787.88
728.94	1695.72
729.12	1642.47
729.31	1607.66
729.50	1646.57
729.69	1732.58
729.87	1679.33
730.06	1593.32
730.25	1699.81
730.43	1699.81
730.62	1628.14
730.81	1660.90
730.99	1697.77
731.18	1701.86
731.37	1646.57
731.55	1679.33
731.74	1798.12
731.93	1685.48
732.11	1726.44
732.30	1656.81
732.49	1769.44
732.67	1646.57
732.86	1626.09
733.05	1589.22
733.23	1673.19
733.42	1632.23
733.61	1652.71
733.79	1656.81
733.98	1744.87
734.17	1615.85
734.35	1714.15
734.54	1734.63
734.73	1710.05
734.91	1542.12
735.10	1736.68
735.29	1783.78
735.47	1585.13
735.66	1673.19
735.84	1712.10
736.03	1650.66
736.22	1769.44
736.40	1681.38
736.59	1585.13
736.78	1675.24
736.96	1718.25
737.15	1685.48
737.33	1732.58
737.52	1712.10
737.71	1732.58
737.89	1746.92
738.08	1665.00
738.27	1765.35
738.45	1679.33
738.64	1710.05
738.82	1705.96
739.01	1607.66
739.20	1705.96
739.38	1740.77
739.57	1716.20
739.75	1685.48
739.94	1714.15
740.13	1601.51
740.31	1724.39
740.50	1683.43
740.68	1695.72
740.87	1693.67
741.06	1773.54
741.24	1732.58
741.43	1630.18
741.61	1560.55
741.80	1683.43
741.99	1638.38
742.17	1736.68
742.36	1617.90
742.54	1703.91
742.73	1740.77
742.91	1642.47
743.10	1693.67
743.29	1746.92
743.47	1691.62
743.66	1613.80
743.84	1673.19
744.03	1693.67
744.21	1613.80
744.40	1746.92
744.59	1712.10
744.77	1671.14
744.96	1730.53
745.14	1589.22
745.33	1771.49
745.51	1642.47
745.70	1677.29
745.88	1738.73
746.07	1642.47
746.26	1628.14
746.44	1632.23
746.63	1572.84
746.81	1695.72
747.00	1751.01
747.18	1646.57
747.37	1652.71
747.55	1773.54
747.74	1959.91
747.92	1675.24
748.11	1679.33
748.29	1626.09
748.48	1746.92
748.66	1718.25
748.85	1748.97
749.03	1669.09
749.22	1619.94
749.41	1689.57
749.59	1755.11
749.78	1581.03
749.96	1630.18
750.15	1624.04
750.33	1722.34
750.52	1636.33
750.70	1646.57
750.89	1726.44
751.07	1689.57
751.26	1722.34
751.44	1605.61
751.63	1648.61
751.81	1648.61
752.00	1630.18
752.18	1691.62
752.37	1703.91
752.55	1646.57
752.74	1669.09
752.92	1644.52
753.10	1708.01
753.29	1609.70
753.47	1765.35
753.66	1587.18
753.84	1609.70
754.03	1546.22
754.21	1673.19
754.40	1724.39
754.58	1757.16
754.77	1681.38
754.95	1744.87
755.14	1675.24
755.32	1712.10
755.51	1658.85
755.69	1613.80
755.88	1576.94
756.06	1716.20
756.24	1681.38
756.43	1681.38
756.61	1691.62
756.80	1654.76
756.98	1574.89
757.17	1644.52
757.35	1748.97
757.54	1705.96
757.72	1640.42
757.90	1665.00
758.09	1667.05
758.27	1636.33
758.46	1640.42
758.64	1712.10
758.83	1740.77
759.01	1699.81
759.19	1755.11
759.38	1695.72
759.56	1695.72
759.75	1656.81
759.93	1679.33
760.12	1611.75
760.30	1701.86
760.48	1636.33
760.67	1705.96
760.85	1710.05
761.04	1683.43
761.22	1679.33
761.40	1626.09
761.59	1642.47
761.77	1667.05
761.96	1691.62
762.14	1665.00
762.32	1785.83
762.51	1652.71
762.69	1630.18
762.88	1673.19
763.06	1603.56
763.24	1583.08
763.43	1685.48
763.61	1613.80
763.80	1679.33
763.98	1695.72
764.16	1591.27
764.35	1568.74
764.53	1662.95
764.72	1642.47
764.90	1644.52
765.08	1638.38
765.27	1718.25
765.45	1621.99
765.63	1716.20
765.82	1757.16
766.00	1660.90
766.18	1621.99
766.37	1679.33
766.55	1640.42
766.74	1646.57
766.92	1658.85
767.10	1621.99
767.29	1773.54
767.47	1669.09
767.65	1658.85
767.84	1667.05
768.02	1748.97
768.20	1728.49
768.39	1687.53
768.57	1650.66
768.75	1681.38
768.94	1853.41
769.12	1630.18
769.30	1675.24
769.49	1667.05
769.67	1662.95
769.85	1812.45
770.04	1652.71
770.22	1656.81
770.40	1726.44
770.59	1662.95
770.77	1765.35
770.95	1628.14
771.14	1681.38
771.32	1650.66
771.50	1642.47
771.69	1646.57
771.87	1613.80
772.05	1675.24
772.24	1564.65
772.42	1701.86
772.60	1662.95
772.78	1773.54
772.97	1554.41
773.15	1705.96
773.33	1681.38
773.52	1671.14
773.70	1759.21
773.88	1681.38
774.07	1628.14
774.25	1587.18
774.43	1720.29
774.61	1687.53
774.80	1621.99
774.98	1724.39
775.16	1699.81
775.34	1695.72
775.53	1695.72
775.71	1761.25
775.89	1662.95
776.08	1654.76
776.26	1685.48
776.44	1671.14
776.62	1621.99
776.81	1677.29
776.99	1695.72
777.17	1667.05
777.35	1662.95
777.54	1656.81
777.72	1660.90
777.90	1681.38
778.08	1621.99
778.27	1681.38
778.45	1624.04
778.63	1671.14
778.81	1716.20
779.00	1708.01
779.18	1675.24
779.36	1716.20
779.54	1722.34
779.73	1665.00
779.91	1576.94
780.09	1599.46
780.27	1691.62
780.46	1667.05
780.64	1640.42
780.82	1728.49
781.00	1662.95
781.19	1687.53
781.37	1671.14
781.55	1675.24
781.73	1748.97
781.91	1640.42
782.10	1695.72
782.28	1681.38
782.46	1640.42
782.64	1699.81
782.82	1755.11
783.01	1599.46
783.19	1687.53
783.37	1626.09
783.55	1687.53
783.74	1701.86
783.92	1611.75
784.10	1650.66
784.28	1693.67
784.46	1685.48
784.64	1607.66
784.83	1781.73
785.01	1781.73
785.19	1779.68
785.37	1667.05
785.55	1669.09
785.74	1716.20
785.92	1636.33
786.10	1640.42
786.28	1773.54
786.46	1691.62
786.64	1628.14
786.83	1667.05
787.01	1644.52
787.19	1683.43
787.37	1791.97
787.55	1585.13
787.74	1626.09
787.92	1656.81
788.10	1665.00
788.28	1609.70
788.46	1632.23
788.64	1763.30
788.82	1730.53
789.01	1658.85
789.19	1665.00
789.37	1757.16
789.55	1650.66
789.73	1703.91
789.91	1763.30
790.09	1636.33
790.28	1613.80
790.46	1589.22
790.64	1769.44
790.82	1648.61
791.00	1621.99
791.18	1632.23
791.36	1759.21
791.55	1685.48
791.73	1716.20
791.91	1593.32
792.09	1624.04
792.27	1535.98
792.45	1667.05
792.63	1765.35
792.81	1679.33
793.00	1736.68
793.18	1763.30
793.36	1765.35
793.54	1648.61
793.72	1660.90
793.90	1648.61
794.08	1544.17
794.26	1650.66
794.44	1640.42
794.62	1624.04
794.81	1562.60
794.99	1753.06
795.17	1740.77
795.35	1642.47
795.53	1642.47
795.71	1730.53
795.89	1673.19
796.07	1597.42
796.25	1689.57
796.43	1685.48
796.61	1691.62
796.80	1691.62
796.98	1751.01
797.16	1689.57
797.34	1624.04
797.52	1570.79
797.70	1697.77
797.88	1691.62
798.06	1697.77
798.24	1734.63
798.42	1597.42
798.60	1656.81
798.78	1660.90
798.96	1691.62
799.14	1683.43
799.32	1785.83
799.51	1654.76
799.69	1759.21
799.87	1789.92
800.05	1701.86
800.23	1613.80
800.41	1712.10
800.59	1667.05
800.77	1658.85
800.95	1628.14
801.13	1667.05
801.31	1654.76
801.49	1796.07
801.67	1677.29
801.85	1681.38
802.03	1638.38
802.21	1673.19
802.39	1603.56
802.57	1669.09
802.75	1675.24
802.93	1705.96
803.11	1605.61
803.29	1624.04
803.47	1650.66
803.65	1601.51
803.83	1648.61
804.01	1732.58
804.19	1615.85
804.37	1705.96
804.55	1667.05
804.73	1675.24
804.91	1662.95
805.09	1708.01
805.27	1714.15
805.45	1681.38
805.63	1638.38
805.81	1722.34
805.99	1769.44
806.17	1708.01
806.35	1599.46
806.53	1736.68
806.71	1679.33
806.89	1597.42
807.07	1708.01
807.25	1650.66
807.43	1619.94
807.61	1746.92
807.79	1673.19
807.97	1585.13
808.15	1648.61
808.33	1609.70
808.51	1683.43
808.69	1695.72
808.87	1597.42
809.05	1574.89
809.23	1570.79
809.41	1630.18
809.59	1601.51
809.77	1734.63
809.95	1681.38
810.13	1812.45
810.31	1767.40
810.49	1640.42
810.67	1705.96
810.84	1697.77
811.02	1619.94
811.20	1613.80
811.38	1779.68
811.56	1640.42
811.74	1628.14
811.92	1611.75
812.10	1646.57
812.28	1642.47
812.46	1738.73
812.64	1642.47
812.82	1687.53
813.00	1621.99
813.18	1695.72
813.36	1624.04
813.53	1693.67
813.71	1773.54
813.89	1703.91
814.07	1626.09
814.25	1755.11
814.43	1640.42
814.61	1562.60
814.79	1634.28
814.97	1695.72
815.15	1654.76
815.33	1607.66
815.50	1638.38
815.68	1605.61
815.86	1646.57
816.04	1697.77
816.22	1650.66
816.40	1634.28
816.58	1669.09
816.76	1581.03
816.94	1740.77
817.11	1621.99
817.29	1759.21
817.47	1691.62
817.65	1650.66
817.83	1650.66
818.01	1611.75
818.19	1583.08
818.37	1630.18
818.54	1679.33
818.72	1667.05
818.90	1687.53
819.08	1650.66
819.26	1730.53
819.44	1814.50
819.62	1699.81
819.80	1605.61
819.97	1687.53
820.15	1705.96
820.33	1673.19
820.51	1572.84
820.69	1691.62
820.87	1640.42
821.05	1669.09
821.22	1574.89
821.40	1695.72
821.58	1640.42
821.76	1613.80
821.94	1619.94
822.12	1642.47
822.29	1658.85
822.47	1673.19
822.65	1583.08
822.83	1630.18
823.01	1675.24
823.19	1662.95
823.36	1667.05
823.54	1599.46
823.72	1687.53
823.90	1699.81
824.08	1556.46
824.25	1611.75
824.43	1578.98
824.61	1632.23
824.79	1654.76
824.97	1572.84
825.15	1675.24
825.32	1642.47
825.50	1720.29
825.68	1634.28
825.86	1738.73
826.04	1675.24
826.21	1716.20
826.39	1554.41
826.57	1730.53
826.75	1736.68
826.93	1695.72
827.10	1705.96
827.28	1685.48
827.46	1660.90
827.64	1673.19
827.81	1683.43
827.99	1609.70
828.17	1654.76
828.35	1628.14
828.53	1718.25
828.70	1744.87
828.88	1646.57
829.06	1603.56
829.24	1660.90
829.41	1806.31
829.59	1722.34
829.77	1671.14
829.95	1718.25
830.12	1619.94
830.30	1701.86
830.48	1667.05
830.66	1652.71
830.84	1658.85
831.01	1689.57
831.19	1492.97
831.37	1646.57
831.55	1617.90
831.72	1763.30
831.90	1716.20
832.08	1703.91
832.25	1714.15
832.43	1597.42
832.61	1820.64
832.79	1634.28
832.96	1650.66
833.14	1789.92
833.32	1708.01
833.50	1566.70
833.67	1695.72
833.85	1642.47
834.03	1548.26
834.20	1683.43
834.38	1773.54
834.56	1761.25
834.74	1628.14
834.91	1581.03
835.09	1736.68
835.27	1638.38
835.44	1693.67
835.62	1619.94
835.80	1609.70
835.98	1613.80
836.15	1712.10
836.33	1662.95
836.51	1527.78
836.68	1603.56
836.86	1675.24
837.04	1681.38
837.21	1695.72
837.39	1679.33
837.57	1699.81
837.75	1662.95
837.92	1675.24
838.10	1640.42
838.28	1648.61
838.45	1677.29
838.63	1527.78
838.81	1689.57
838.98	1691.62
839.16	1615.85
839.34	1615.85
839.51	1626.09
839.69	1583.08
839.87	1650.66
840.04	1683.43
840.22	1894.37
840.40	1744.87
840.57	1552.36
840.75	1691.62
840.93	1509.35
841.10	1587.18
841.28	1662.95
841.46	1703.91
841.63	1675.24
841.81	1560.55
841.98	1558.50
842.16	1751.01
842.34	1634.28
842.51	1585.13
842.69	1683.43
842.87	1693.67
843.04	1652.71
843.22	1644.52
843.40	1624.04
843.57	1617.90
843.75	1648.61
843.92	1712.10
844.10	1720.29
844.28	1679.33
844.45	1667.05
844.63	1724.39
844.81	1650.66
844.98	1724.39
845.16	1583.08
845.33	1748.97
845.51	1591.27
845.69	1699.81
845.86	1755.11
846.04	1607.66
846.21	1650.66
846.39	1583.08
846.57	1607.66
846.74	1679.33
846.92	1671.14
847.09	1640.42
847.27	1615.85
847.45	1599.46
847.62	1685.48
847.80	1695.72
847.97	1617.90
848.15	1585.13
848.32	1621.99
848.50	1689.57
848.68	1628.14
848.85	1679.33
849.03	1552.36
849.20	1576.94
849.38	1677.29
849.56	1615.85
849.73	1574.89
849.91	1589.22
850.08	1705.96
850.26	1540.07
850.43	1619.94
850.61	1675.24
850.78	1523.69
850.96	1677.29
851.14	1613.80
851.31	1798.12
851.49	1642.47
851.66	1654.76
851.84	1560.55
852.01	1626.09
852.19	1621.99
852.36	1685.48
852.54	1667.05
852.71	1681.38
852.89	1689.57
853.07	1611.75
853.24	1642.47
853.42	1681.38
853.59	1646.57
853.77	1611.75
853.94	1716.20
854.12	1689.57
854.29	1513.45
854.47	1636.33
854.64	1699.81
854.82	1667.05
854.99	1775.59
855.17	1703.91
855.34	1562.60
855.52	1693.67
855.69	1738.73
855.87	1662.95
856.04	1605.61
856.22	1689.57
856.39	1656.81
856.57	1632.23
856.74	1576.94
856.92	1751.01
857.09	1624.04
857.27	1646.57
857.44	1763.30
857.62	1689.57
857.79	1650.66
857.97	1708.01
858.14	1574.89
858.32	1679.33
858.49	1654.76
858.67	1648.61
858.84	1673.19
859.02	1691.62
859.19	1669.09
859.37	1564.65
859.54	1617.90
859.72	1650.66
859.89	1589.22
860.06	1542.12
860.24	1591.27
860.41	1710.05
860.59	1550.31
860.76	1746.92
860.94	1527.78
861.11	1673.19
861.29	1748.97
861.46	1601.51
861.64	1662.95
861.81	1712.10
861.98	1591.27
862.16	1593.32
862.33	1574.89
862.51	1564.65
862.68	1660.90
862.86	1611.75
863.03	1636.33
863.21	1587.18
863.38	1621.99
863.55	1529.83
863.73	1605.61
863.90	1724.39
864.08	1603.56
864.25	1617.90
864.43	1679.33
864.60	1578.98
864.77	1708.01
864.95	1654.76
865.12	1564.65
865.30	1742.82
865.47	1693.67
865.64	1638.38
865.82	1720.29
865.99	1724.39
866.17	1693.67
866.34	1763.30
866.51	1564.65
866.69	1640.42
866.86	1718.25
867.04	1748.97
867.21	1607.66
867.38	1667.05
867.56	1654.76
867.73	1679.33
867.91	1681.38
868.08	1562.60
868.25	1585.13
868.43	1636.33
868.60	1636.33
868.78	1562.60
868.95	1703.91
869.12	1691.62
869.30	1585.13
869.47	1691.62
869.64	1675.24
869.82	1652.71
869.99	1662.95
870.16	1728.49
870.34	1699.81
870.51	1759.21
870.69	1544.17
870.86	1665.00
871.03	1662.95
871.21	1646.57
871.38	1675.24
871.55	1689.57
871.73	1636.33
871.90	1626.09
872.07	1624.04
872.25	1497.07
872.42	1630.18
872.59	1591.27
872.77	1671.14
872.94	1587.18
873.11	1632.23
873.29	1738.73
873.46	1640.42
873.63	1662.95
873.81	1665.00
873.98	1708.01
874.15	1617.90
874.33	1667.05
874.50	1740.77
874.67	1695.72
874.85	1583.08
875.02	1714.15
875.19	1644.52
875.37	1581.03
875.54	1570.79
875.71	1673.19
875.88	1716.20
876.06	1673.19
876.23	1665.00
876.40	1724.39
876.58	1646.57
876.75	1761.25
876.92	1560.55
877.10	1710.05
877.27	1654.76
877.44	1638.38
877.61	1638.38
877.79	1763.30
877.96	1685.48
878.13	1662.95
878.31	1658.85
878.48	1617.90
878.65	1669.09
878.82	1519.59
879.00	1662.95
879.17	1675.24
879.34	1630.18
879.51	1640.42
879.69	1683.43
879.86	1535.98
880.03	1654.76
880.21	1613.80
880.38	1658.85
880.55	1687.53
880.72	1662.95
880.90	1611.75
881.07	1599.46
881.24	1701.86
881.41	1701.86
881.59	1716.20
881.76	1656.81
881.93	1738.73
882.10	1630.18
882.28	1630.18
882.45	1716.20
882.62	1683.43
882.79	1728.49
882.96	1599.46
883.14	1615.85
883.31	1697.77
883.48	1603.56
883.65	1671.14
883.83	1687.53
884.00	1609.70
884.17	1662.95
884.34	1697.77
884.51	1673.19
884.69	1648.61
884.86	1658.85
885.03	1720.29
885.20	1605.61
885.38	1705.96
885.55	1642.47
885.72	1708.01
885.89	1544.17
886.06	1644.52
886.24	1607.66
886.41	1597.42
886.58	1691.62
886.75	1679.33
886.92	1628.14
887.10	1630.18
887.27	1624.04
887.44	1808.36
887.61	1744.87
887.78	1724.39
887.95	1654.76
888.13	1615.85
888.30	1632.23
888.47	1634.28
888.64	1673.19
888.81	1714.15
888.99	1544.17
889.16	1646.57
889.33	1576.94
889.50	1624.04
889.67	1648.61
889.84	1667.05
890.01	1720.29
890.19	1642.47
890.36	1662.95
890.53	1671.14
890.70	1603.56
890.87	1691.62
891.04	1644.52
891.22	1660.90
891.39	1576.94
891.56	1654.76
891.73	1611.75
891.90	1621.99
892.07	1521.64
892.24	1732.58
892.42	1646.57
892.59	1632.23
892.76	1595.37
892.93	1603.56
893.10	1587.18
893.27	1708.01
893.44	1613.80
893.61	1665.00
893.79	1718.25
893.96	1628.14
894.13	1603.56
894.30	1556.46
894.47	1654.76
894.64	1724.39
894.81	1587.18
894.98	1628.14
895.15	1658.85
895.33	1650.66
895.50	1644.52
895.67	1609.70
895.84	1591.27
896.01	1572.84
896.18	1542.12
896.35	1705.96
896.52	1591.27
896.69	1679.33
896.86	1673.19
897.04	1681.38
897.21	1681.38
897.38	1671.14
897.55	1593.32
897.72	1652.71
897.89	1626.09
898.06	1720.29
898.23	1617.90
898.40	1740.77
898.57	1656.81
898.74	1699.81
898.91	1650.66
899.08	1634.28
899.26	1597.42
899.43	1796.07
899.60	1646.57
899.77	1665.00
899.94	1576.94
900.11	1613.80
900.28	1654.76
900.45	1726.44
900.62	1585.13
900.79	1673.19
900.96	1634.28
901.13	1630.18
901.30	1640.42
901.47	1558.50
901.64	1527.78
901.81	1714.15
901.98	1648.61
902.15	1650.66
902.32	1607.66
902.49	1683.43
902.66	1632.23
902.83	1662.95
903.01	1638.38
903.18	1593.32
903.35	1599.46
903.52	1607.66
903.69	1607.66
903.86	1587.18
904.03	1675.24
904.20	1619.94
904.37	1728.49
904.54	1562.60
904.71	1546.22
904.88	1646.57
905.05	1613.80
905.22	1603.56
905.39	1564.65
905.56	1535.98
905.73	1499.11
905.90	1611.75
906.07	1615.85
906.24	1630.18
906.41	1578.98
906.58	1734.63
906.75	1585.13
906.92	1595.37
907.09	1691.62
907.26	1716.20
907.43	1531.88
907.60	1644.52
907.77	1640.42
907.93	1710.05
908.10	1611.75
908.27	1744.87
908.44	1634.28
908.61	1601.51
908.78	1634.28
908.95	1724.39
909.12	1667.05
909.29	1669.09
909.46	1597.42
909.63	1777.64
909.80	1583.08
909.97	1593.32
910.14	1624.04
910.31	1638.38
910.48	1695.72
910.65	1716.20
910.82	1685.48
910.99	1626.09
911.16	1597.42
911.33	1662.95
911.50	1699.81
911.66	1683.43
911.83	1708.01
912.00	1601.51
912.17	1556.46
912.34	1636.33
912.51	1658.85
912.68	1646.57
912.85	1626.09
913.02	1660.90
913.19	1630.18
913.36	1613.80
913.53	1697.77
913.70	1554.41
913.86	1798.12
914.03	1566.70
914.20	1677.29
914.37	1669.09
914.54	1679.33
914.71	1785.83
914.88	1681.38
915.05	1646.57
915.22	1603.56
915.39	1705.96
915.55	1671.14
915.72	1595.37
915.89	1683.43
916.06	1658.85
916.23	1589.22
916.40	1755.11
916.57	1654.76
916.74	1683.43
916.91	1656.81
917.07	1570.79
917.24	1538.02
917.41	1587.18
917.58	1703.91
917.75	1587.18
917.92	1562.60
918.09	1654.76
918.26	1583.08
918.42	1665.00
918.59	1720.29
918.76	1617.90
918.93	1597.42
919.10	1581.03
919.27	1671.14
919.44	1740.77
919.60	1624.04
919.77	1570.79
919.94	1554.41
920.11	1679.33
920.28	1730.53
920.45	1603.56
920.61	1595.37
920.78	1613.80
920.95	1673.19
921.12	1699.81
921.29	1581.03
921.46	1660.90
921.62	1578.98
921.79	1658.85
921.96	1656.81
922.13	1640.42
922.30	1656.81
922.47	1609.70
922.63	1611.75
922.80	1626.09
922.97	1544.17
923.14	1509.35
923.31	1648.61
923.47	1630.18
923.64	1751.01
923.81	1544.17
923.98	1687.53
924.15	1617.90
924.32	1593.32
924.48	1597.42
924.65	1705.96
924.82	1603.56
924.99	1605.61
925.15	1499.11
925.32	1837.03
925.49	1544.17
925.66	1599.46
925.83	1636.33
925.99	1599.46
926.16	1808.36
926.33	1658.85
926.50	1574.89
926.67	1574.89
926.83	1566.70
927.00	1697.77
927.17	1669.09
927.34	1587.18
927.50	1667.05
927.67	1853.41
927.84	1667.05
928.01	1693.67
928.17	1705.96
928.34	1636.33
928.51	1621.99
928.68	1644.52
928.84	1599.46
929.01	1611.75
929.18	1642.47
929.35	1646.57
929.51	1644.52
929.68	1601.51
929.85	1636.33
930.02	1591.27
930.18	1609.70
930.35	1591.27
930.52	1626.09
930.69	1687.53
930.85	1705.96
931.02	1558.50
931.19	1642.47
931.36	1656.81
931.52	1660.90
931.69	1658.85
931.86	1624.04
932.02	1667.05
932.19	1593.32
932.36	1642.47
932.53	1607.66
932.69	1548.26
932.86	1787.88
933.03	1626.09
933.19	1564.65
933.36	1689.57
933.53	1705.96
933.70	1648.61
933.86	1765.35
934.03	1667.05
934.20	1708.01
934.36	1673.19
934.53	1583.08
934.70	1611.75
934.86	1765.35
935.03	1644.52
935.20	1542.12
935.36	1667.05
935.53	1591.27
935.70	1621.99
935.86	1642.47
936.03	1605.61
936.20	1523.69
936.36	1578.98
936.53	1634.28
936.70	1599.46
936.86	1728.49
937.03	1640.42
937.20	1617.90
937.36	1705.96
937.53	1613.80
937.70	1628.14
937.86	1660.90
938.03	1665.00
938.20	1679.33
938.36	1593.32
938.53	1673.19
938.70	1529.83
938.86	1669.09
939.03	1703.91
939.20	1617.90
939.36	1669.09
939.53	1716.20
939.70	1941.47
939.86	1583.08
940.03	1591.27
940.19	1558.50
940.36	1722.34
940.53	1634.28
940.69	1617.90
940.86	1667.05
941.03	1662.95
941.19	1603.56
941.36	1613.80
941.52	1703.91
941.69	1576.94
941.86	1581.03
942.02	1613.80
942.19	1648.61
942.35	1732.58
942.52	1640.42
942.69	1638.38
942.85	1609.70
943.02	1599.46
943.18	1662.95
943.35	1679.33
943.52	1570.79
943.68	1591.27
943.85	1726.44
944.01	1624.04
944.18	1630.18
944.35	1636.33
944.51	1626.09
944.68	1564.65
944.84	1607.66
945.01	1593.32
945.17	1634.28
945.34	1681.38
945.51	1673.19
945.67	1648.61
945.84	1611.75
946.00	1621.99
946.17	1646.57
946.33	1576.94
946.50	1738.73
946.67	1644.52
946.83	1617.90
947.00	1660.90
947.16	1646.57
947.33	1585.13
947.49	1636.33
947.66	1597.42
947.82	1621.99
947.99	1574.89
948.16	1624.04
948.32	1609.70
948.49	1634.28
948.65	1656.81
948.82	1689.57
948.98	1554.41
949.15	1568.74
949.31	1683.43
949.48	1587.18
949.64	1701.86
949.81	1662.95
949.97	1667.05
950.14	1699.81
950.30	1542.12
950.47	1642.47
950.63	1613.80
950.80	1628.14
950.96	1634.28
951.13	1609.70
951.30	1554.41
951.46	1736.68
951.63	1673.19
951.79	1685.48
951.96	1691.62
952.12	1601.51
952.29	1687.53
952.45	1599.46
952.62	1683.43
952.78	1642.47
952.94	1621.99
953.11	1605.61
953.27	1474.54
953.44	1701.86
953.60	1646.57
953.77	1751.01
953.93	1591.27
954.10	1708.01
954.26	1578.98
954.43	1693.67
954.59	1697.77
954.76	1714.15
954.92	1644.52
955.09	1681.38
955.25	1568.74
955.42	1601.51
955.58	1656.81
955.75	1662.95
955.91	1673.19
956.07	1658.85
956.24	1671.14
956.40	1689.57
956.57	1673.19
956.73	1601.51
956.90	1695.72
957.06	1605.61
957.23	1583.08
957.39	1624.04
957.56	1581.03
957.72	1624.04
957.88	1609.70
958.05	1736.68
958.21	1693.67
958.38	1667.05
958.54	1644.52
958.71	1726.44
958.87	1591.27
959.03	1576.94
959.20	1667.05
959.36	1609.70
959.53	1572.84
959.69	1552.36
959.85	1652.71
960.02	1517.54
960.18	1609.70
960.35	1617.90
960.51	1703.91
960.68	1601.51
960.84	1587.18
961.00	1511.40
961.17	1642.47
961.33	1689.57
961.50	1646.57
961.66	1650.66
961.82	1576.94
961.99	1665.00
962.15	1638.38
962.31	1636.33
962.48	1640.42
962.64	1640.42
962.81	1621.99
962.97	1605.61
963.13	1658.85
963.30	1574.89
963.46	1611.75
963.62	1531.88
963.79	1607.66
963.95	1628.14
964.12	1624.04
964.28	1667.05
964.44	1603.56
964.61	1740.77
964.77	1658.85
964.93	1802.21
965.10	1597.42
965.26	1597.42
965.42	1634.28
965.59	1517.54
965.75	1658.85
965.92	1681.38
966.08	1654.76
966.24	1591.27
966.41	1574.89
966.57	1683.43
966.73	1617.90
966.90	1716.20
967.06	1611.75
967.22	1560.55
967.39	1654.76
967.55	1605.61
967.71	1542.12
967.88	1708.01
968.04	1544.17
968.20	1652.71
968.37	1576.94
968.53	1603.56
968.69	1591.27
968.85	1650.66
969.02	1689.57
969.18	1714.15
969.34	1675.24
969.51	1671.14
969.67	1695.72
969.83	1605.61
970.00	1665.00
970.16	1660.90
970.32	1601.51
970.48	1773.54
970.65	1632.23
970.81	1597.42
970.97	1554.41
971.14	1613.80
971.30	1720.29
971.46	1562.60
971.63	1630.18
971.79	1722.34
971.95	1658.85
972.11	1554.41
972.28	1624.04
972.44	1701.86
972.60	1585.13
972.76	1628.14
972.93	1656.81
973.09	1730.53
973.25	1636.33
973.42	1552.36
973.58	1740.77
973.74	1628.14
973.90	1699.81
974.07	1626.09
974.23	1665.00
974.39	1656.81
974.55	1669.09
974.72	1597.42
974.88	1570.79
975.04	1650.66
975.20	1576.94
975.37	1681.38
975.53	1624.04
975.69	1728.49
975.85	1638.38
976.01	1572.84
976.18	1628.14
976.34	1578.98
976.50	1689.57
976.66	1703.91
976.83	1617.90
976.99	1607.66
977.15	1681.38
977.31	1601.51
977.47	1683.43
977.64	1685.48
977.80	1576.94
977.96	1644.52
978.12	1671.14
978.29	1601.51
978.45	1560.55
978.61	1601.51
978.77	1722.34
978.93	1566.70
979.10	1611.75
979.26	1634.28
979.42	1603.56
979.58	1535.98
979.74	1607.66
979.91	1648.61
980.07	1529.83
980.23	1585.13
980.39	1560.55
980.55	1718.25
980.71	1628.14
980.88	1630.18
981.04	1613.80
981.20	1628.14
981.36	1650.66
981.52	1617.90
981.68	1576.94
981.85	1665.00
982.01	1656.81
982.17	1599.46
982.33	1564.65
982.49	1718.25
982.65	1597.42
982.82	1626.09
982.98	1613.80
983.14	1544.17
983.30	1644.52
983.46	1732.58
983.62	1716.20
983.79	1568.74
983.95	1634.28
984.11	1548.26
984.27	1558.50
984.43	1585.13
984.59	1665.00
984.75	1638.38
984.91	1601.51
985.08	1634.28
985.24	1525.74
985.40	1581.03
985.56	1638.38
985.72	1617.90
985.88	1630.18
986.04	1630.18
986.20	1589.22
986.37	1593.32
986.53	1585.13
986.69	1667.05
986.85	1564.65
987.01	1609.70
987.17	1642.47
987.33	1587.18
987.49	1576.94
987.65	1615.85
987.82	1628.14
987.98	1540.07
988.14	1626.09
988.30	1685.48
988.46	1589.22
988.62	1638.38
988.78	1669.09
988.94	1632.23
989.10	1628.14
989.26	1578.98
989.42	1560.55
989.59	1605.61
989.75	1656.81
989.91	1671.14
990.07	1558.50
990.23	1634.28
990.39	1636.33
990.55	1673.19
990.71	1572.84
990.87	1656.81
991.03	1671.14
991.19	1550.31
991.35	1644.52
991.51	1634.28
991.67	1638.38
991.83	1578.98
992.00	1624.04
992.16	1671.14
992.32	1671.14
992.48	1656.81
992.64	1538.02
992.80	1722.34
992.96	1621.99
993.12	1601.51
993.28	1646.57
993.44	1601.51
993.60	1648.61
993.76	1644.52
993.92	1648.61
994.08	1617.90
994.24	1615.85
994.40	1732.58
994.56	1673.19
994.72	1617.90
994.88	1564.65
995.04	1615.85
995.20	1607.66
995.36	1581.03
995.52	1601.51
995.68	1540.07
995.84	1576.94
996.00	1683.43
996.16	1636.33
996.32	1597.42
996.48	1607.66
996.64	1695.72
996.80	1617.90
996.96	1675.24
997.12	1619.94
997.28	1550.31
997.44	1568.74
997.60	1566.70
997.76	1650.66
997.92	1644.52
998.08	1650.66
998.24	1523.69
998.40	1626.09
998.56	1658.85
998.72	1437.67
998.88	1566.70
999.04	1591.27
999.20	1638.38
999.36	1544.17
999.52	1751.01
999.68	1667.05
999.84	1642.47
1000.00	1658.85
1000.16	1667.05
1000.32	1621.99
1000.48	1716.20
1000.64	1527.78
1000.80	1585.13
1000.95	1558.50
1001.11	1642.47
1001.27	1519.59
1001.43	1634.28
1001.59	1568.74
1001.75	1634.28
1001.91	1572.84
1002.07	1593.32
1002.23	1624.04
1002.39	1581.03
1002.55	1609.70
1002.71	1552.36
1002.87	1572.84
1003.03	1576.94
1003.19	1607.66
1003.34	1634.28
1003.50	1511.40
1003.66	1619.94
1003.82	1648.61
1003.98	1597.42
1004.14	1624.04
1004.30	1589.22
1004.46	1568.74
1004.62	1585.13
1004.78	1660.90
1004.94	1603.56
1005.09	1634.28
1005.25	1572.84
1005.41	1630.18
1005.57	1656.81
1005.73	1624.04
1005.89	1601.51
1006.05	1699.81
1006.21	1599.46
1006.37	1527.78
1006.52	1609.70
1006.68	1609.70
1006.84	1679.33
1007.00	1607.66
1007.16	1695.72
1007.32	1662.95
1007.48	1558.50
1007.64	1613.80
1007.79	1607.66
1007.95	1529.83
1008.11	1662.95
1008.27	1595.37
1008.43	1642.47
1008.59	1560.55
1008.75	1679.33
1008.91	1619.94
1009.06	1605.61
1009.22	1617.90
1009.38	1705.96
1009.54	1708.01
1009.70	1550.31
1009.86	1693.67
1010.01	1621.99
1010.17	1593.32
1010.33	1611.75
1010.49	1636.33
1010.65	1759.21
1010.81	1568.74
1010.96	1570.79
1011.12	1570.79
1011.28	1523.69
1011.44	1626.09
1011.60	1574.89
1011.76	1583.08
1011.91	1677.29
1012.07	1525.74
1012.23	1527.78
1012.39	1568.74
1012.55	1615.85
1012.71	1634.28
1012.86	1621.99
1013.02	1701.86
1013.18	1689.57
1013.34	1576.94
1013.50	1689.57
1013.65	1644.52
1013.81	1624.04
1013.97	1587.18
1014.13	1681.38
1014.29	1621.99
1014.44	1708.01
1014.60	1609.70
1014.76	1599.46
1014.92	1589.22
1015.07	1636.33
1015.23	1687.53
1015.39	1585.13
1015.55	1597.42
1015.71	1564.65
1015.86	1585.13
1016.02	1605.61
1016.18	1515.50
1016.34	1624.04
1016.49	1572.84
1016.65	1665.00
1016.81	1644.52
1016.97	1667.05
1017.12	1591.27
1017.28	1538.02
1017.44	1607.66
1017.60	1542.12
1017.75	1597.42
1017.91	1617.90
1018.07	1607.66
1018.23	1595.37
1018.38	1540.07
1018.54	1599.46
1018.70	1660.90
1018.86	1570.79
1019.01	1634.28
1019.17	1570.79
1019.33	1728.49
1019.49	1595.37
1019.64	1683.43
1019.80	1658.85
1019.96	1607.66
1020.12	1687.53
1020.27	1544.17
1020.43	1601.51
1020.59	1660.90
1020.74	1619.94
1020.90	1697.77
1021.06	1630.18
1021.22	1615.85
1021.37	1642.47
1021.53	1589.22
1021.69	1591.27
1021.84	1574.89
1022.00	1583.08
1022.16	1587.18
1022.31	1634.28
1022.47	1607.66
1022.63	1624.04
1022.79	1525.74
1022.94	1624.04
1023.10	1718.25
1023.26	1556.46
1023.41	1603.56
1023.57	1585.13
1023.73	1597.42
1023.88	1597.42
1024.04	1581.03
1024.20	1552.36
1024.35	1589.22
1024.51	1667.05
1024.67	1613.80
1024.82	1685.48
1024.98	1564.65
1025.14	1638.38
1025.29	1576.94
1025.45	1671.14
1025.61	1585.13
1025.76	1611.75
1025.92	1566.70
1026.08	1568.74
1026.23	1673.19
1026.39	1658.85
1026.55	1564.65
1026.70	1587.18
1026.86	1542.12
1027.02	1570.79
1027.17	1599.46
1027.33	1679.33
1027.48	1576.94
1027.64	1626.09
1027.80	1621.99
1027.95	1646.57
1028.11	1603.56
1028.27	1613.80
1028.42	1720.29
1028.58	1615.85
1028.73	1562.60
1028.89	1570.79
1029.05	1767.40
1029.20	1658.85
>>>>>End Processed Spectral Data<<<<<
