SpectraSuite Data File
++++++++++++++++++++++++++++++++++++
Date: Fri Jun 02 14:51:06 CEST 2017
User: INFO_000
Dark Spectrum Present: No
Reference Spectrum Present: No
Number of Sampled Component Spectra: 1
Spectrometers: USB4H00879
Integration Time (usec): 80000 (USB4H00879)
Spectra Averaged: 1 (USB4H00879)
Boxcar Smoothing: 0 (USB4H00879)
Correct for Electrical Dark: No (USB4H00879)
Strobe/Lamp Enabled: No (USB4H00879)
Correct for Detector Non-linearity: No (USB4H00879)
Correct for Stray Light: No (USB4H00879)
Number of Pixels in Processed Spectrum: 3648
>>>>>Begin Processed Spectral Data<<<<<
345.13	1273.84
345.34	1273.84
345.56	1273.84
345.78	1234.93
345.99	1359.85
346.21	1791.97
346.42	1736.68
346.64	1679.33
346.86	1773.54
347.07	1644.52
347.29	1757.16
347.50	1662.95
347.72	1634.28
347.94	1773.54
348.15	1521.64
348.37	1650.66
348.59	1691.62
348.80	1621.99
349.02	1662.95
349.23	1755.11
349.45	1714.15
349.67	1783.78
349.88	1667.05
350.10	1859.56
350.31	1667.05
350.53	1746.92
350.75	1830.88
350.96	1566.70
351.18	1712.10
351.39	1785.83
351.61	1681.38
351.82	1716.20
352.04	1761.25
352.26	1732.58
352.47	1757.16
352.69	1785.83
352.90	1605.61
353.12	1708.01
353.34	1761.25
353.55	1804.26
353.77	1761.25
353.98	1687.53
354.20	1679.33
354.41	1759.21
354.63	1720.29
354.85	1867.75
355.06	1773.54
355.28	1527.78
355.49	1646.57
355.71	1763.30
355.92	1712.10
356.14	1759.21
356.35	1765.35
356.57	1722.34
356.79	1683.43
357.00	1662.95
357.22	1789.92
357.43	1634.28
357.65	1826.79
357.86	1634.28
358.08	1683.43
358.29	1744.87
358.51	1675.24
358.72	1779.68
358.94	1716.20
359.16	1691.62
359.37	1652.71
359.59	1714.15
359.80	1716.20
360.02	1791.97
360.23	1703.91
360.45	1781.73
360.66	1699.81
360.88	1585.13
361.09	1781.73
361.31	1712.10
361.52	1748.97
361.74	1857.51
361.95	1794.02
362.17	1685.48
362.38	1765.35
362.60	1736.68
362.81	1746.92
363.03	1669.09
363.24	1654.76
363.46	1712.10
363.67	1697.77
363.89	1679.33
364.10	1740.77
364.32	1677.29
364.53	1759.21
364.75	1619.94
364.96	1777.64
365.18	1748.97
365.39	1681.38
365.61	1578.98
365.82	1755.11
366.04	1701.86
366.25	1634.28
366.47	1800.16
366.68	1685.48
366.90	1642.47
367.11	1755.11
367.33	1796.07
367.54	1734.63
367.76	1689.57
367.97	1845.22
368.19	1710.05
368.40	1736.68
368.62	1630.18
368.83	1574.89
369.05	1665.00
369.26	1669.09
369.48	1665.00
369.69	1660.90
369.91	1722.34
370.12	1718.25
370.33	1816.55
370.55	1656.81
370.76	1687.53
370.98	1757.16
371.19	1687.53
371.41	1714.15
371.62	1732.58
371.84	1677.29
372.05	1740.77
372.27	1738.73
372.48	1705.96
372.69	1742.82
372.91	1773.54
373.12	1751.01
373.34	1728.49
373.55	1763.30
373.77	1732.58
373.98	1671.14
374.20	1748.97
374.41	1738.73
374.62	1730.53
374.84	1726.44
375.05	1662.95
375.27	1689.57
375.48	1693.67
375.70	1705.96
375.91	1744.87
376.12	1800.16
376.34	1685.48
376.55	1712.10
376.77	1759.21
376.98	1617.90
377.19	1671.14
377.41	1638.38
377.62	1697.77
377.84	1765.35
378.05	1869.80
378.27	1714.15
378.48	1804.26
378.69	1886.18
378.91	1751.01
379.12	1744.87
379.34	1683.43
379.55	1734.63
379.76	1753.06
379.98	1644.52
380.19	1773.54
380.41	1726.44
380.62	1712.10
380.83	1703.91
381.05	1644.52
381.26	1859.56
381.47	1665.00
381.69	1675.24
381.90	1728.49
382.12	1658.85
382.33	1689.57
382.54	1689.57
382.76	1685.48
382.97	1677.29
383.19	1630.18
383.40	1824.74
383.61	1695.72
383.83	1642.47
384.04	1564.65
384.25	1701.86
384.47	1740.77
384.68	1781.73
384.89	1605.61
385.11	1560.55
385.32	1679.33
385.54	1667.05
385.75	1634.28
385.96	1753.06
386.18	1705.96
386.39	1732.58
386.60	1654.76
386.82	1644.52
387.03	1658.85
387.24	1699.81
387.46	1740.77
387.67	1726.44
387.88	1708.01
388.10	1656.81
388.31	1689.57
388.52	1787.88
388.74	1734.63
388.95	1638.38
389.16	1775.59
389.38	1607.66
389.59	1693.67
389.80	1744.87
390.02	1705.96
390.23	1728.49
390.44	1679.33
390.66	1720.29
390.87	1632.23
391.08	1673.19
391.30	1769.44
391.51	1710.05
391.72	1730.53
391.94	1759.21
392.15	1693.67
392.36	1642.47
392.58	1642.47
392.79	1748.97
393.00	1708.01
393.22	1740.77
393.43	1748.97
393.64	1712.10
393.85	1804.26
394.07	1642.47
394.28	1730.53
394.49	1701.86
394.71	1738.73
394.92	1734.63
395.13	1624.04
395.35	1693.67
395.56	1683.43
395.77	1705.96
395.98	1699.81
396.20	1712.10
396.41	1691.62
396.62	1748.97
396.84	1636.33
397.05	1613.80
397.26	1722.34
397.47	1746.92
397.69	1718.25
397.90	1867.75
398.11	1769.44
398.32	1650.66
398.54	1722.34
398.75	1671.14
398.96	1669.09
399.18	1830.88
399.39	1677.29
399.60	1667.05
399.81	1701.86
400.03	1589.22
400.24	2004.96
400.45	1716.20
400.66	1746.92
400.88	1632.23
401.09	1830.88
401.30	1591.27
401.51	1771.49
401.73	1773.54
401.94	1722.34
402.15	1712.10
402.36	1714.15
402.58	1728.49
402.79	1781.73
403.00	1648.61
403.21	1814.50
403.43	1779.68
403.64	1773.54
403.85	1669.09
404.06	1796.07
404.27	1621.99
404.49	1695.72
404.70	1714.15
404.91	1769.44
405.12	1718.25
405.34	1732.58
405.55	1779.68
405.76	1591.27
405.97	1667.05
406.19	1753.06
406.40	1669.09
406.61	1691.62
406.82	1714.15
407.03	1708.01
407.25	1665.00
407.46	1765.35
407.67	1753.06
407.88	1771.49
408.09	1781.73
408.31	1679.33
408.52	1716.20
408.73	1656.81
408.94	1636.33
409.15	1599.46
409.37	1689.57
409.58	1738.73
409.79	1734.63
410.00	1873.89
410.21	1712.10
410.43	1767.40
410.64	1718.25
410.85	1761.25
411.06	1738.73
411.27	1693.67
411.48	1753.06
411.70	1736.68
411.91	1671.14
412.12	1781.73
412.33	1732.58
412.54	1675.24
412.76	1712.10
412.97	1751.01
413.18	1667.05
413.39	1732.58
413.60	1720.29
413.81	1769.44
414.03	1646.57
414.24	1671.14
414.45	1773.54
414.66	1656.81
414.87	1699.81
415.08	1695.72
415.30	1724.39
415.51	1683.43
415.72	1763.30
415.93	1673.19
416.14	1744.87
416.35	1710.05
416.56	1703.91
416.78	1648.61
416.99	1679.33
417.20	1744.87
417.41	1724.39
417.62	1765.35
417.83	1734.63
418.04	1617.90
418.26	1751.01
418.47	1716.20
418.68	1634.28
418.89	1789.92
419.10	1902.56
419.31	1708.01
419.52	1744.87
419.73	1712.10
419.95	1757.16
420.16	1697.77
420.37	1689.57
420.58	1759.21
420.79	1593.32
421.00	1705.96
421.21	1708.01
421.42	1722.34
421.63	1693.67
421.85	1693.67
422.06	1687.53
422.27	1609.70
422.48	1687.53
422.69	1720.29
422.90	1656.81
423.11	1593.32
423.32	1806.31
423.53	1779.68
423.75	1722.34
423.96	1691.62
424.17	1740.77
424.38	1812.45
424.59	1683.43
424.80	1662.95
425.01	1720.29
425.22	1619.94
425.43	1767.40
425.64	1791.97
425.85	1732.58
426.06	1726.44
426.28	1699.81
426.49	1646.57
426.70	1652.71
426.91	1642.47
427.12	1708.01
427.33	1699.81
427.54	1705.96
427.75	1740.77
427.96	1738.73
428.17	1728.49
428.38	1656.81
428.59	1708.01
428.80	1763.30
429.01	1650.66
429.23	1658.85
429.44	1712.10
429.65	1757.16
429.86	1613.80
430.07	1658.85
430.28	1630.18
430.49	1779.68
430.70	1732.58
430.91	1828.84
431.12	1644.52
431.33	1708.01
431.54	1738.73
431.75	1697.77
431.96	1740.77
432.17	1689.57
432.38	1755.11
432.59	1798.12
432.80	1818.60
433.01	1718.25
433.22	1773.54
433.43	1650.66
433.64	1656.81
433.85	1765.35
434.06	1712.10
434.27	1683.43
434.49	1697.77
434.70	1724.39
434.91	1714.15
435.12	1695.72
435.33	1699.81
435.54	1683.43
435.75	1603.56
435.96	1646.57
436.17	1712.10
436.38	1699.81
436.59	1681.38
436.80	1630.18
437.01	1785.83
437.22	1771.49
437.43	1722.34
437.64	1734.63
437.85	1675.24
438.06	1812.45
438.27	1617.90
438.48	1675.24
438.69	1685.48
438.90	1648.61
439.11	1634.28
439.32	1787.88
439.53	1574.89
439.74	1671.14
439.95	1658.85
440.16	1644.52
440.37	1722.34
440.57	1607.66
440.78	1662.95
440.99	1677.29
441.20	1722.34
441.41	1597.42
441.62	1701.86
441.83	1722.34
442.04	1648.61
442.25	1710.05
442.46	1597.42
442.67	1667.05
442.88	1828.84
443.09	1681.38
443.30	1599.46
443.51	1705.96
443.72	1683.43
443.93	1662.95
444.14	1785.83
444.35	1658.85
444.56	1621.99
444.77	1624.04
444.98	1771.49
445.19	1708.01
445.40	1656.81
445.61	1689.57
445.81	1628.14
446.02	1822.69
446.23	1765.35
446.44	1675.24
446.65	1710.05
446.86	1796.07
447.07	1888.23
447.28	1728.49
447.49	1638.38
447.70	1695.72
447.91	1755.11
448.12	1705.96
448.33	1777.64
448.54	1632.23
448.74	1699.81
448.95	1708.01
449.16	1705.96
449.37	1757.16
449.58	1695.72
449.79	1771.49
450.00	1662.95
450.21	1708.01
450.42	1652.71
450.63	1673.19
450.84	1638.38
451.05	1748.97
451.25	1624.04
451.46	1671.14
451.67	1734.63
451.88	1748.97
452.09	1658.85
452.30	1630.18
452.51	1632.23
452.72	1738.73
452.93	1734.63
453.13	1677.29
453.34	1587.18
453.55	1748.97
453.76	1693.67
453.97	1695.72
454.18	1597.42
454.39	1734.63
454.60	1716.20
454.81	1691.62
455.01	1687.53
455.22	1595.37
455.43	1642.47
455.64	1789.92
455.85	1767.40
456.06	1800.16
456.27	1730.53
456.48	1722.34
456.68	1652.71
456.89	1806.31
457.10	1654.76
457.31	1722.34
457.52	1777.64
457.73	1697.77
457.94	1734.63
458.14	1591.27
458.35	1751.01
458.56	1681.38
458.77	1654.76
458.98	1673.19
459.19	1728.49
459.39	1714.15
459.60	1609.70
459.81	1728.49
460.02	1658.85
460.23	1753.06
460.44	1652.71
460.65	1652.71
460.85	1632.23
461.06	1708.01
461.27	1712.10
461.48	1650.66
461.69	1650.66
461.89	1603.56
462.10	1617.90
462.31	1595.37
462.52	1593.32
462.73	1701.86
462.94	1742.82
463.14	1724.39
463.35	1742.82
463.56	1798.12
463.77	1814.50
463.98	1638.38
464.18	1662.95
464.39	1730.53
464.60	1781.73
464.81	1546.22
465.02	1667.05
465.23	1722.34
465.43	1703.91
465.64	1705.96
465.85	1591.27
466.06	1714.15
466.27	1687.53
466.47	1658.85
466.68	1699.81
466.89	1605.61
467.10	1523.69
467.30	1593.32
467.51	1720.29
467.72	1708.01
467.93	1628.14
468.14	1585.13
468.34	1732.58
468.55	1734.63
468.76	1785.83
468.97	1658.85
469.17	1746.92
469.38	1765.35
469.59	1724.39
469.80	1665.00
470.01	1722.34
470.21	1781.73
470.42	1654.76
470.63	1720.29
470.84	1822.69
471.04	1695.72
471.25	1804.26
471.46	1794.02
471.67	1820.64
471.87	1585.13
472.08	1714.15
472.29	1724.39
472.50	1687.53
472.70	1656.81
472.91	1617.90
473.12	1767.40
473.33	1722.34
473.53	1699.81
473.74	1593.32
473.95	1699.81
474.16	1615.85
474.36	1615.85
474.57	1769.44
474.78	1638.38
474.99	1730.53
475.19	1816.55
475.40	1773.54
475.61	1748.97
475.81	1744.87
476.02	1675.24
476.23	1738.73
476.44	1644.52
476.64	1714.15
476.85	1720.29
477.06	1695.72
477.27	1654.76
477.47	1779.68
477.68	1687.53
477.89	1640.42
478.09	1716.20
478.30	1693.67
478.51	1667.05
478.71	1697.77
478.92	1771.49
479.13	1708.01
479.34	1619.94
479.54	1683.43
479.75	1687.53
479.96	1695.72
480.16	1628.14
480.37	1687.53
480.58	1724.39
480.78	1822.69
480.99	1613.80
481.20	1703.91
481.41	1757.16
481.61	1701.86
481.82	1740.77
482.03	1638.38
482.23	1581.03
482.44	1806.31
482.65	1796.07
482.85	1830.88
483.06	1703.91
483.27	1748.97
483.47	1710.05
483.68	1675.24
483.89	1720.29
484.09	1691.62
484.30	1748.97
484.51	1761.25
484.71	1669.09
484.92	1634.28
485.13	1685.48
485.33	1720.29
485.54	1675.24
485.75	1701.86
485.95	1757.16
486.16	1671.14
486.37	1712.10
486.57	1656.81
486.78	1724.39
486.98	1703.91
487.19	1695.72
487.40	1712.10
487.60	1740.77
487.81	1699.81
488.02	1634.28
488.22	1722.34
488.43	1736.68
488.64	1667.05
488.84	1636.33
489.05	1732.58
489.25	1644.52
489.46	1656.81
489.67	1679.33
489.87	1796.07
490.08	1763.30
490.29	1658.85
490.49	1808.36
490.70	1730.53
490.90	1640.42
491.11	1665.00
491.32	1703.91
491.52	1710.05
491.73	1685.48
491.94	1693.67
492.14	1617.90
492.35	1671.14
492.55	1755.11
492.76	1628.14
492.97	1646.57
493.17	1755.11
493.38	1763.30
493.58	1763.30
493.79	1708.01
494.00	1687.53
494.20	1615.85
494.41	1751.01
494.61	1818.60
494.82	1703.91
495.02	1697.77
495.23	1830.88
495.44	1701.86
495.64	1667.05
495.85	1628.14
496.05	1767.40
496.26	1761.25
496.47	1691.62
496.67	1642.47
496.88	1767.40
497.08	1585.13
497.29	1693.67
497.49	1708.01
497.70	1708.01
497.91	1646.57
498.11	1771.49
498.32	1656.81
498.52	1746.92
498.73	1732.58
498.93	1724.39
499.14	1716.20
499.34	1724.39
499.55	1777.64
499.76	1658.85
499.96	1667.05
500.17	1744.87
500.37	1791.97
500.58	1683.43
500.78	1777.64
500.99	1650.66
501.19	1697.77
501.40	1769.44
501.60	1568.74
501.81	1667.05
502.02	1763.30
502.22	1736.68
502.43	1687.53
502.63	1837.03
502.84	1736.68
503.04	1724.39
503.25	1642.47
503.45	1746.92
503.66	1660.90
503.86	1775.59
504.07	1757.16
504.27	1636.33
504.48	1748.97
504.68	1705.96
504.89	1820.64
505.09	1656.81
505.30	1667.05
505.50	1712.10
505.71	1679.33
505.91	1757.16
506.12	1712.10
506.32	1773.54
506.53	1677.29
506.73	1703.91
506.94	1656.81
507.14	1642.47
507.35	1789.92
507.55	1779.68
507.76	1728.49
507.96	1597.42
508.17	1808.36
508.37	1597.42
508.58	1818.60
508.78	1798.12
508.99	1736.68
509.19	1777.64
509.40	1652.71
509.60	1697.77
509.81	1769.44
510.01	1734.63
510.22	1691.62
510.42	1763.30
510.63	1755.11
510.83	1660.90
511.04	1695.72
511.24	1742.82
511.44	1746.92
511.65	1724.39
511.85	1724.39
512.06	1720.29
512.26	1693.67
512.47	1798.12
512.67	1617.90
512.88	1740.77
513.08	1646.57
513.29	1806.31
513.49	1578.98
513.69	1748.97
513.90	1621.99
514.10	1769.44
514.31	1718.25
514.51	1603.56
514.72	1714.15
514.92	1773.54
515.13	1634.28
515.33	1677.29
515.53	1568.74
515.74	1748.97
515.94	1755.11
516.15	1847.27
516.35	1613.80
516.56	1681.38
516.76	1652.71
516.96	1697.77
517.17	1695.72
517.37	1714.15
517.58	1624.04
517.78	1703.91
517.99	1716.20
518.19	1837.03
518.39	1697.77
518.60	1732.58
518.80	1665.00
519.01	1787.88
519.21	1675.24
519.41	1708.01
519.62	1615.85
519.82	1773.54
520.03	1679.33
520.23	1642.47
520.43	1710.05
520.64	1753.06
520.84	1748.97
521.05	1650.66
521.25	1777.64
521.45	1710.05
521.66	1683.43
521.86	1728.49
522.07	1669.09
522.27	1714.15
522.47	1646.57
522.68	1765.35
522.88	1763.30
523.08	1820.64
523.29	1599.46
523.49	1726.44
523.70	1708.01
523.90	1683.43
524.10	1603.56
524.31	1650.66
524.51	1628.14
524.71	1779.68
524.92	1720.29
525.12	1607.66
525.33	1787.88
525.53	1740.77
525.73	1763.30
525.94	1626.09
526.14	1656.81
526.34	1675.24
526.55	1753.06
526.75	1675.24
526.95	1771.49
527.16	1718.25
527.36	1716.20
527.56	1734.63
527.77	1644.52
527.97	1695.72
528.17	1699.81
528.38	1714.15
528.58	1708.01
528.78	1656.81
528.99	1669.09
529.19	1671.14
529.39	1601.51
529.60	1640.42
529.80	1679.33
530.00	1638.38
530.21	1703.91
530.41	1718.25
530.61	1806.31
530.82	1714.15
531.02	1675.24
531.22	1720.29
531.43	1689.57
531.63	1681.38
531.83	1708.01
532.04	1794.02
532.24	1650.66
532.44	1658.85
532.64	1800.16
532.85	1634.28
533.05	1646.57
533.25	1636.33
533.46	1730.53
533.66	1658.85
533.86	1699.81
534.07	1775.59
534.27	1712.10
534.47	1697.77
534.67	1763.30
534.88	1658.85
535.08	1759.21
535.28	1730.53
535.49	1671.14
535.69	1720.29
535.89	1720.29
536.09	1812.45
536.30	1681.38
536.50	1648.61
536.70	1779.68
536.91	1673.19
537.11	1689.57
537.31	1687.53
537.51	1677.29
537.72	1673.19
537.92	1734.63
538.12	1671.14
538.32	1757.16
538.53	1673.19
538.73	1687.53
538.93	1683.43
539.13	1689.57
539.34	1691.62
539.54	1667.05
539.74	1730.53
539.94	1695.72
540.15	1736.68
540.35	1701.86
540.55	1642.47
540.75	1632.23
540.96	1693.67
541.16	1736.68
541.36	1699.81
541.56	1716.20
541.77	1812.45
541.97	1646.57
542.17	1638.38
542.37	1785.83
542.58	1757.16
542.78	1814.50
542.98	1736.68
543.18	1734.63
543.38	1765.35
543.59	1779.68
543.79	1681.38
543.99	1601.51
544.19	1724.39
544.40	1685.48
544.60	1708.01
544.80	1703.91
545.00	1628.14
545.20	1757.16
545.41	1740.77
545.61	1642.47
545.81	1701.86
546.01	1757.16
546.21	1687.53
546.42	1607.66
546.62	1701.86
546.82	1671.14
547.02	1578.98
547.22	1695.72
547.43	1757.16
547.63	1695.72
547.83	1675.24
548.03	1695.72
548.23	1783.78
548.44	1689.57
548.64	1665.00
548.84	1748.97
549.04	1634.28
549.24	1830.88
549.45	1804.26
549.65	1705.96
549.85	1779.68
550.05	1697.77
550.25	1564.65
550.45	1855.46
550.66	1652.71
550.86	1630.18
551.06	1685.48
551.26	1712.10
551.46	1708.01
551.66	1683.43
551.87	1714.15
552.07	1675.24
552.27	1638.38
552.47	1744.87
552.67	1726.44
552.87	1691.62
553.07	1744.87
553.28	1732.58
553.48	1693.67
553.68	1619.94
553.88	1765.35
554.08	1724.39
554.28	1591.27
554.48	1648.61
554.69	1763.30
554.89	1697.77
555.09	1665.00
555.29	1648.61
555.49	1785.83
555.69	1691.62
555.89	1734.63
556.10	1705.96
556.30	1687.53
556.50	1691.62
556.70	1751.01
556.90	1708.01
557.10	1667.05
557.30	1708.01
557.50	1638.38
557.70	1701.86
557.91	1705.96
558.11	1744.87
558.31	1796.07
558.51	1716.20
558.71	1763.30
558.91	1675.24
559.11	1640.42
559.31	1632.23
559.51	1593.32
559.72	1759.21
559.92	1630.18
560.12	1619.94
560.32	1755.11
560.52	1798.12
560.72	1691.62
560.92	1759.21
561.12	1689.57
561.32	1648.61
561.52	1665.00
561.72	1906.66
561.93	1791.97
562.13	1695.72
562.33	1705.96
562.53	1683.43
562.73	1669.09
562.93	1675.24
563.13	1679.33
563.33	1748.97
563.53	1718.25
563.73	1777.64
563.93	1837.03
564.13	1761.25
564.33	1687.53
564.53	1718.25
564.74	1669.09
564.94	1652.71
565.14	1730.53
565.34	1773.54
565.54	1726.44
565.74	1687.53
565.94	1744.87
566.14	1673.19
566.34	1683.43
566.54	1744.87
566.74	1740.77
566.94	1755.11
567.14	1714.15
567.34	1755.11
567.54	1773.54
567.74	1626.09
567.94	1742.82
568.14	1763.30
568.34	1771.49
568.54	1703.91
568.74	1748.97
568.94	1748.97
569.14	1798.12
569.34	1757.16
569.54	1732.58
569.75	1714.15
569.95	1720.29
570.15	1857.51
570.35	1746.92
570.55	1617.90
570.75	1746.92
570.95	1699.81
571.15	1728.49
571.35	1720.29
571.55	1650.66
571.75	1720.29
571.95	1624.04
572.15	1765.35
572.35	1722.34
572.55	1755.11
572.75	1710.05
572.95	1691.62
573.15	1675.24
573.35	1751.01
573.55	1724.39
573.75	1736.68
573.95	1877.99
574.15	1712.10
574.35	1673.19
574.55	1701.86
574.75	1658.85
574.95	1572.84
575.15	1669.09
575.34	1675.24
575.54	1662.95
575.74	1693.67
575.94	1669.09
576.14	1689.57
576.34	1767.40
576.54	1685.48
576.74	1822.69
576.94	1648.61
577.14	1748.97
577.34	1701.86
577.54	1642.47
577.74	1654.76
577.94	1632.23
578.14	1626.09
578.34	1697.77
578.54	1626.09
578.74	1697.77
578.94	1765.35
579.14	1712.10
579.34	1538.02
579.54	1759.21
579.74	1691.62
579.94	1630.18
580.13	1787.88
580.33	1720.29
580.53	1634.28
580.73	1681.38
580.93	1769.44
581.13	1642.47
581.33	1703.91
581.53	1736.68
581.73	1681.38
581.93	1658.85
582.13	1624.04
582.33	1642.47
582.53	1675.24
582.73	1761.25
582.92	1632.23
583.12	1683.43
583.32	1683.43
583.52	1705.96
583.72	1798.12
583.92	1777.64
584.12	1746.92
584.32	1681.38
584.52	1607.66
584.72	1724.39
584.92	1712.10
585.11	1755.11
585.31	1769.44
585.51	1574.89
585.71	1712.10
585.91	1794.02
586.11	1658.85
586.31	1757.16
586.51	1658.85
586.71	1765.35
586.91	1669.09
587.10	1718.25
587.30	1753.06
587.50	1716.20
587.70	1673.19
587.90	1656.81
588.10	1638.38
588.30	1787.88
588.50	1697.77
588.69	1687.53
588.89	1736.68
589.09	1738.73
589.29	1611.75
589.49	1728.49
589.69	1744.87
589.89	1708.01
590.08	1722.34
590.28	1648.61
590.48	1677.29
590.68	1736.68
590.88	1667.05
591.08	1738.73
591.28	1726.44
591.47	1748.97
591.67	1644.52
591.87	1773.54
592.07	1816.55
592.27	1675.24
592.47	1648.61
592.67	1751.01
592.86	1710.05
593.06	1748.97
593.26	1773.54
593.46	1753.06
593.66	1646.57
593.86	1800.16
594.05	1744.87
594.25	1734.63
594.45	1673.19
594.65	1787.88
594.85	1761.25
595.05	1656.81
595.24	1720.29
595.44	1767.40
595.64	1718.25
595.84	1691.62
596.04	1724.39
596.23	1781.73
596.43	1742.82
596.63	1675.24
596.83	1738.73
597.03	1773.54
597.22	1734.63
597.42	1728.49
597.62	1718.25
597.82	1697.77
598.02	1785.83
598.21	1687.53
598.41	1695.72
598.61	1685.48
598.81	1699.81
599.01	1736.68
599.20	1736.68
599.40	1755.11
599.60	1765.35
599.80	1748.97
600.00	1820.64
600.19	1736.68
600.39	1679.33
600.59	1705.96
600.79	1791.97
600.98	1753.06
601.18	1816.55
601.38	1732.58
601.58	1712.10
601.78	1722.34
601.97	1877.99
602.17	1748.97
602.37	1656.81
602.57	1794.02
602.76	1740.77
602.96	1564.65
603.16	1650.66
603.36	1730.53
603.55	1656.81
603.75	1656.81
603.95	1759.21
604.15	1748.97
604.34	1642.47
604.54	1687.53
604.74	1777.64
604.94	1769.44
605.13	1603.56
605.33	1624.04
605.53	1613.80
605.73	1744.87
605.92	1691.62
606.12	1771.49
606.32	1683.43
606.52	1753.06
606.71	1748.97
606.91	1699.81
607.11	1658.85
607.30	1673.19
607.50	1609.70
607.70	1820.64
607.90	1716.20
608.09	1716.20
608.29	1779.68
608.49	1794.02
608.68	1703.91
608.88	1691.62
609.08	1740.77
609.28	1724.39
609.47	1693.67
609.67	1742.82
609.87	1726.44
610.06	1712.10
610.26	1783.78
610.46	1769.44
610.66	1609.70
610.85	1669.09
611.05	1775.59
611.25	1689.57
611.44	1730.53
611.64	1773.54
611.84	1732.58
612.03	1628.14
612.23	1646.57
612.43	1705.96
612.62	1724.39
612.82	1773.54
613.02	1712.10
613.21	1701.86
613.41	1722.34
613.61	1611.75
613.80	1650.66
614.00	1621.99
614.20	1775.59
614.39	1804.26
614.59	1785.83
614.79	1650.66
614.98	1742.82
615.18	1689.57
615.38	1759.21
615.57	1746.92
615.77	1896.42
615.97	1650.66
616.16	1644.52
616.36	1781.73
616.56	1753.06
616.75	1675.24
616.95	1648.61
617.15	1742.82
617.34	1714.15
617.54	1832.93
617.74	1816.55
617.93	1781.73
618.13	1697.77
618.32	1685.48
618.52	1753.06
618.72	1699.81
618.91	1783.78
619.11	1736.68
619.31	1724.39
619.50	1724.39
619.70	1658.85
619.90	1796.07
620.09	1695.72
620.29	1761.25
620.48	1859.56
620.68	1779.68
620.88	1806.31
621.07	1748.97
621.27	1744.87
621.46	1763.30
621.66	1722.34
621.86	1806.31
622.05	1675.24
622.25	1859.56
622.44	1703.91
622.64	1742.82
622.84	1757.16
623.03	1658.85
623.23	1724.39
623.42	1830.88
623.62	1761.25
623.82	1781.73
624.01	1656.81
624.21	1714.15
624.40	1853.41
624.60	1685.48
624.80	1689.57
624.99	1712.10
625.19	1656.81
625.38	1759.21
625.58	1740.77
625.77	1621.99
625.97	1755.11
626.17	1628.14
626.36	1681.38
626.56	1769.44
626.75	1646.57
626.95	1718.25
627.14	1767.40
627.34	1691.62
627.54	1769.44
627.73	1748.97
627.93	1763.30
628.12	1738.73
628.32	1757.16
628.51	1634.28
628.71	1808.36
628.90	1789.92
629.10	1638.38
629.30	1785.83
629.49	1765.35
629.69	1587.18
629.88	1683.43
630.08	1839.08
630.27	1966.05
630.47	1738.73
630.66	1724.39
630.86	1673.19
631.05	1683.43
631.25	1658.85
631.44	1828.84
631.64	1654.76
631.84	1738.73
632.03	1755.11
632.23	1646.57
632.42	1716.20
632.62	1660.90
632.81	1673.19
633.01	1761.25
633.20	1857.51
633.40	1855.46
633.59	1714.15
633.79	1738.73
633.98	1744.87
634.18	1796.07
634.37	1789.92
634.57	1683.43
634.76	1648.61
634.96	1755.11
635.15	1869.80
635.35	1791.97
635.54	1759.21
635.74	1628.14
635.93	1646.57
636.13	1699.81
636.32	1804.26
636.52	1796.07
636.71	1621.99
636.91	1705.96
637.10	1802.21
637.30	1693.67
637.49	1677.29
637.69	1765.35
637.88	1685.48
638.08	1652.71
638.27	1667.05
638.46	1732.58
638.66	1753.06
638.85	1675.24
639.05	1779.68
639.24	1847.27
639.44	1677.29
639.63	1744.87
639.83	1738.73
640.02	1708.01
640.22	1769.44
640.41	1656.81
640.61	1703.91
640.80	1759.21
640.99	1718.25
641.19	1828.84
641.38	1820.64
641.58	1673.19
641.77	1789.92
641.97	1675.24
642.16	1720.29
642.36	1716.20
642.55	1736.68
642.74	1710.05
642.94	1722.34
643.13	1662.95
643.33	1765.35
643.52	1740.77
643.72	1761.25
643.91	1687.53
644.10	1740.77
644.30	1691.62
644.49	1693.67
644.69	1746.92
644.88	1757.16
645.08	1759.21
645.27	1773.54
645.46	1683.43
645.66	1804.26
645.85	1736.68
646.05	1718.25
646.24	1746.92
646.43	1716.20
646.63	1734.63
646.82	1746.92
647.02	1845.22
647.21	1763.30
647.40	1779.68
647.60	1611.75
647.79	1853.41
647.99	1669.09
648.18	1701.86
648.37	1769.44
648.57	1710.05
648.76	1710.05
648.96	1685.48
649.15	1705.96
649.34	1843.17
649.54	1716.20
649.73	1714.15
649.92	1732.58
650.12	1742.82
650.31	1714.15
650.51	1869.80
650.70	1748.97
650.89	1662.95
651.09	1828.84
651.28	1820.64
651.47	1748.97
651.67	1777.64
651.86	1798.12
652.06	1640.42
652.25	1748.97
652.44	1599.46
652.64	1722.34
652.83	1726.44
653.02	1765.35
653.22	1757.16
653.41	1650.66
653.60	1748.97
653.80	1656.81
653.99	1759.21
654.18	1650.66
654.38	1712.10
654.57	1791.97
654.76	1656.81
654.96	1644.52
655.15	1675.24
655.34	1753.06
655.54	1705.96
655.73	1671.14
655.92	1744.87
656.12	1746.92
656.31	1785.83
656.50	1853.41
656.70	1673.19
656.89	1630.18
657.08	1632.23
657.28	1720.29
657.47	1701.86
657.66	1679.33
657.86	1800.16
658.05	1769.44
658.24	1767.40
658.43	1738.73
658.63	1605.61
658.82	1710.05
659.01	1744.87
659.21	1777.64
659.40	1665.00
659.59	1791.97
659.79	1691.62
659.98	1822.69
660.17	1648.61
660.36	1777.64
660.56	1720.29
660.75	1794.02
660.94	1726.44
661.14	1621.99
661.33	1613.80
661.52	1789.92
661.71	1753.06
661.91	1611.75
662.10	1638.38
662.29	1648.61
662.49	1660.90
662.68	1695.72
662.87	1665.00
663.06	1738.73
663.26	1708.01
663.45	1824.74
663.64	1642.47
663.83	1757.16
664.03	1765.35
664.22	1732.58
664.41	1830.88
664.60	1791.97
664.80	1675.24
664.99	1693.67
665.18	1781.73
665.37	1718.25
665.57	1808.36
665.76	1636.33
665.95	1724.39
666.14	1718.25
666.34	1712.10
666.53	1755.11
666.72	1701.86
666.91	1712.10
667.11	1665.00
667.30	1740.77
667.49	1703.91
667.68	1791.97
667.87	1734.63
668.07	1871.84
668.26	1624.04
668.45	1683.43
668.64	1734.63
668.84	1746.92
669.03	1798.12
669.22	1738.73
669.41	1724.39
669.60	1603.56
669.80	1759.21
669.99	1685.48
670.18	1755.11
670.37	1716.20
670.57	1740.77
670.76	1705.96
670.95	1734.63
671.14	1632.23
671.33	1634.28
671.53	1759.21
671.72	1757.16
671.91	1738.73
672.10	1708.01
672.29	1755.11
672.48	1705.96
672.68	1767.40
672.87	1681.38
673.06	1742.82
673.25	1699.81
673.44	1683.43
673.64	1597.42
673.83	1773.54
674.02	1656.81
674.21	1769.44
674.40	1767.40
674.59	1675.24
674.79	1685.48
674.98	1802.21
675.17	1785.83
675.36	1568.74
675.55	1642.47
675.74	1626.09
675.94	1804.26
676.13	1693.67
676.32	1708.01
676.51	1683.43
676.70	1658.85
676.89	1724.39
677.08	1656.81
677.28	1845.22
677.47	1665.00
677.66	1730.53
677.85	1628.14
678.04	1720.29
678.23	1806.31
678.42	1634.28
678.62	1683.43
678.81	1699.81
679.00	1716.20
679.19	1779.68
679.38	1736.68
679.57	1673.19
679.76	1691.62
679.96	1718.25
680.15	1818.60
680.34	1656.81
680.53	1791.97
680.72	1773.54
680.91	1740.77
681.10	1773.54
681.29	1708.01
681.48	1794.02
681.68	1742.82
681.87	1820.64
682.06	1701.86
682.25	1843.17
682.44	1677.29
682.63	1871.84
682.82	1535.98
683.01	1820.64
683.20	1658.85
683.39	1775.59
683.59	1669.09
683.78	1736.68
683.97	1683.43
684.16	1679.33
684.35	1621.99
684.54	1699.81
684.73	1695.72
684.92	1636.33
685.11	1773.54
685.30	1783.78
685.49	1710.05
685.69	1808.36
685.88	1675.24
686.07	1677.29
686.26	1755.11
686.45	1675.24
686.64	1802.21
686.83	1720.29
687.02	1798.12
687.21	1859.56
687.40	1804.26
687.59	1863.65
687.78	1714.15
687.97	1834.98
688.16	1763.30
688.35	1722.34
688.54	1679.33
688.74	1525.74
688.93	1744.87
689.12	1722.34
689.31	1863.65
689.50	1826.79
689.69	1671.14
689.88	1728.49
690.07	1648.61
690.26	1726.44
690.45	1679.33
690.64	1621.99
690.83	1687.53
691.02	1740.77
691.21	1689.57
691.40	1662.95
691.59	1740.77
691.78	1783.78
691.97	1609.70
692.16	1683.43
692.35	1798.12
692.54	1736.68
692.73	1662.95
692.92	1824.74
693.11	1722.34
693.30	1683.43
693.49	1662.95
693.68	1771.49
693.87	1781.73
694.06	1640.42
694.25	1638.38
694.44	1699.81
694.63	1673.19
694.82	1675.24
695.01	1691.62
695.20	1691.62
695.39	1720.29
695.58	1671.14
695.77	1593.32
695.96	1697.77
696.15	1677.29
696.34	1665.00
696.53	1738.73
696.72	1724.39
696.91	1626.09
697.10	1763.30
697.29	1691.62
697.48	1789.92
697.67	1773.54
697.86	1753.06
698.05	1638.38
698.24	1687.53
698.43	1681.38
698.62	1718.25
698.81	1724.39
699.00	1791.97
699.19	1800.16
699.38	1777.64
699.57	1603.56
699.76	1771.49
699.95	1724.39
700.14	1673.19
700.32	1759.21
700.51	1677.29
700.70	1718.25
700.89	1812.45
701.08	1796.07
701.27	1660.90
701.46	1804.26
701.65	1708.01
701.84	1646.57
702.03	1624.04
702.22	1746.92
702.41	1775.59
702.60	1675.24
702.79	1712.10
702.98	1624.04
703.17	1734.63
703.35	1718.25
703.54	1681.38
703.73	1697.77
703.92	1632.23
704.11	1736.68
704.30	1755.11
704.49	1800.16
704.68	1712.10
704.87	1748.97
705.06	1763.30
705.25	1703.91
705.43	1632.23
705.62	1607.66
705.81	1787.88
706.00	1720.29
706.19	1710.05
706.38	1646.57
706.57	1839.08
706.76	1742.82
706.95	1652.71
707.14	1773.54
707.32	1753.06
707.51	1697.77
707.70	1638.38
707.89	1755.11
708.08	1693.67
708.27	1687.53
708.46	1763.30
708.65	1587.18
708.84	1789.92
709.02	1705.96
709.21	1617.90
709.40	1771.49
709.59	1779.68
709.78	1660.90
709.97	1667.05
710.16	1765.35
710.34	1755.11
710.53	1714.15
710.72	1712.10
710.91	1722.34
711.10	1652.71
711.29	1689.57
711.48	1789.92
711.66	1640.42
711.85	1693.67
712.04	1703.91
712.23	1656.81
712.42	1761.25
712.61	1771.49
712.80	1665.00
712.98	1654.76
713.17	1699.81
713.36	1710.05
713.55	1789.92
713.74	1722.34
713.93	1697.77
714.11	1673.19
714.30	1626.09
714.49	1773.54
714.68	1728.49
714.87	1667.05
715.06	1843.17
715.24	1736.68
715.43	1722.34
715.62	1634.28
715.81	1697.77
716.00	1699.81
716.18	1710.05
716.37	1736.68
716.56	1658.85
716.75	1746.92
716.94	1679.33
717.12	1779.68
717.31	1652.71
717.50	1636.33
717.69	1687.53
717.88	1744.87
718.06	1703.91
718.25	1804.26
718.44	1630.18
718.63	1726.44
718.82	1630.18
719.00	1699.81
719.19	1888.23
719.38	1621.99
719.57	1738.73
719.76	1687.53
719.94	1685.48
720.13	1714.15
720.32	1789.92
720.51	1695.72
720.69	1722.34
720.88	1763.30
721.07	1769.44
721.26	1794.02
721.44	1787.88
721.63	1765.35
721.82	1705.96
722.01	1753.06
722.20	1748.97
722.38	1726.44
722.57	1638.38
722.76	1746.92
722.95	1662.95
723.13	1714.15
723.32	1691.62
723.51	1732.58
723.70	1748.97
723.88	1808.36
724.07	1587.18
724.26	1779.68
724.44	1687.53
724.63	1738.73
724.82	1759.21
725.01	1665.00
725.19	1607.66
725.38	1697.77
725.57	1689.57
725.76	1820.64
725.94	1630.18
726.13	1689.57
726.32	1632.23
726.51	1665.00
726.69	1642.47
726.88	1726.44
727.07	1734.63
727.25	1642.47
727.44	1699.81
727.63	1601.51
727.82	1671.14
728.00	1726.44
728.19	1683.43
728.38	1710.05
728.56	1667.05
728.75	1763.30
728.94	1832.93
729.12	1691.62
729.31	1722.34
729.50	1718.25
729.69	1800.16
729.87	1708.01
730.06	1650.66
730.25	1720.29
730.43	1771.49
730.62	1634.28
730.81	1730.53
730.99	1673.19
731.18	1705.96
731.37	1691.62
731.55	1695.72
731.74	1695.72
731.93	1634.28
732.11	1650.66
732.30	1744.87
732.49	1683.43
732.67	1662.95
732.86	1609.70
733.05	1656.81
733.23	1763.30
733.42	1679.33
733.61	1689.57
733.79	1687.53
733.98	1714.15
734.17	1701.86
734.35	1732.58
734.54	1783.78
734.73	1708.01
734.91	1652.71
735.10	1710.05
735.29	1755.11
735.47	1628.14
735.66	1675.24
735.84	1730.53
736.03	1744.87
736.22	1699.81
736.40	1755.11
736.59	1591.27
736.78	1650.66
736.96	1652.71
737.15	1714.15
737.33	1763.30
737.52	1679.33
737.71	1726.44
737.89	1675.24
738.08	1716.20
738.27	1746.92
738.45	1724.39
738.64	1697.77
738.82	1732.58
739.01	1753.06
739.20	1732.58
739.38	1759.21
739.57	1732.58
739.75	1722.34
739.94	1753.06
740.13	1667.05
740.31	1677.29
740.50	1724.39
740.68	1714.15
740.87	1646.57
741.06	1775.59
741.24	1728.49
741.43	1716.20
741.61	1626.09
741.80	1724.39
741.99	1656.81
742.17	1757.16
742.36	1646.57
742.54	1650.66
742.73	1740.77
742.91	1693.67
743.10	1751.01
743.29	1724.39
743.47	1734.63
743.66	1589.22
743.84	1621.99
744.03	1753.06
744.21	1642.47
744.40	1744.87
744.59	1716.20
744.77	1662.95
744.96	1744.87
745.14	1730.53
745.33	1728.49
745.51	1751.01
745.70	1712.10
745.88	1714.15
746.07	1665.00
746.26	1669.09
746.44	1660.90
746.63	1533.93
746.81	1669.09
747.00	1787.88
747.18	1665.00
747.37	1587.18
747.55	1652.71
747.74	2035.68
747.92	1660.90
748.11	1646.57
748.29	1679.33
748.48	1773.54
748.66	1685.48
748.85	1691.62
749.03	1728.49
749.22	1624.04
749.41	1652.71
749.59	1679.33
749.78	1753.06
749.96	1591.27
750.15	1673.19
750.33	1777.64
750.52	1595.37
750.70	1667.05
750.89	1703.91
751.07	1605.61
751.26	1718.25
751.44	1662.95
751.63	1658.85
751.81	1652.71
752.00	1587.18
752.18	1699.81
752.37	1740.77
752.55	1648.61
752.74	1576.94
752.92	1679.33
753.10	1699.81
753.29	1703.91
753.47	1662.95
753.66	1646.57
753.84	1695.72
754.03	1644.52
754.21	1665.00
754.40	1679.33
754.58	1683.43
754.77	1767.40
754.95	1722.34
755.14	1701.86
755.32	1689.57
755.51	1572.84
755.69	1710.05
755.88	1626.09
756.06	1761.25
756.24	1671.14
756.43	1703.91
756.61	1691.62
756.80	1642.47
756.98	1626.09
757.17	1796.07
757.35	1738.73
757.54	1658.85
757.72	1689.57
757.90	1689.57
758.09	1665.00
758.27	1632.23
758.46	1703.91
758.64	1732.58
758.83	1740.77
759.01	1753.06
759.19	1695.72
759.38	1740.77
759.56	1695.72
759.75	1644.52
759.93	1763.30
760.12	1685.48
760.30	1675.24
760.48	1705.96
760.67	1732.58
760.85	1617.90
761.04	1665.00
761.22	1724.39
761.40	1644.52
761.59	1667.05
761.77	1644.52
761.96	1708.01
762.14	1699.81
762.32	1736.68
762.51	1642.47
762.69	1693.67
762.88	1716.20
763.06	1619.94
763.24	1642.47
763.43	1636.33
763.61	1589.22
763.80	1617.90
763.98	1658.85
764.16	1607.66
764.35	1660.90
764.53	1572.84
764.72	1667.05
764.90	1695.72
765.08	1679.33
765.27	1689.57
765.45	1681.38
765.63	1611.75
765.82	1728.49
766.00	1619.94
766.18	1681.38
766.37	1617.90
766.55	1628.14
766.74	1712.10
766.92	1564.65
767.10	1660.90
767.29	1703.91
767.47	1679.33
767.65	1611.75
767.84	1687.53
768.02	1791.97
768.20	1726.44
768.39	1669.09
768.57	1613.80
768.75	1642.47
768.94	1779.68
769.12	1638.38
769.30	1644.52
769.49	1714.15
769.67	1656.81
769.85	1732.58
770.04	1595.37
770.22	1683.43
770.40	1703.91
770.59	1710.05
770.77	1773.54
770.95	1624.04
771.14	1722.34
771.32	1669.09
771.50	1591.27
771.69	1667.05
771.87	1689.57
772.05	1695.72
772.24	1648.61
772.42	1699.81
772.60	1708.01
772.78	1742.82
772.97	1548.26
773.15	1710.05
773.33	1724.39
773.52	1566.70
773.70	1656.81
773.88	1675.24
774.07	1576.94
774.25	1705.96
774.43	1712.10
774.61	1687.53
774.80	1652.71
774.98	1665.00
775.16	1687.53
775.34	1681.38
775.53	1738.73
775.71	1718.25
775.89	1755.11
776.08	1720.29
776.26	1667.05
776.44	1736.68
776.62	1662.95
776.81	1619.94
776.99	1640.42
777.17	1716.20
777.35	1746.92
777.54	1683.43
777.72	1632.23
777.90	1646.57
778.08	1675.24
778.27	1699.81
778.45	1640.42
778.63	1716.20
778.81	1732.58
779.00	1724.39
779.18	1677.29
779.36	1718.25
779.54	1726.44
779.73	1669.09
779.91	1595.37
780.09	1581.03
780.27	1675.24
780.46	1681.38
780.64	1650.66
780.82	1640.42
781.00	1665.00
781.19	1591.27
781.37	1697.77
781.55	1867.75
781.73	1685.48
781.91	1615.85
782.10	1722.34
782.28	1751.01
782.46	1708.01
782.64	1742.82
782.82	1712.10
783.01	1634.28
783.19	1773.54
783.37	1658.85
783.55	1697.77
783.74	1624.04
783.92	1746.92
784.10	1671.14
784.28	1714.15
784.46	1638.38
784.64	1593.32
784.83	1720.29
785.01	1828.84
785.19	1796.07
785.37	1732.58
785.55	1722.34
785.74	1665.00
785.92	1662.95
786.10	1630.18
786.28	1767.40
786.46	1695.72
786.64	1662.95
786.83	1644.52
787.01	1708.01
787.19	1867.75
787.37	1775.59
787.55	1642.47
787.74	1697.77
787.92	1742.82
788.10	1744.87
788.28	1656.81
788.46	1599.46
788.64	1708.01
788.82	1744.87
789.01	1621.99
789.19	1744.87
789.37	1703.91
789.55	1679.33
789.73	1589.22
789.91	1716.20
790.09	1630.18
790.28	1669.09
790.46	1550.31
790.64	1769.44
790.82	1640.42
791.00	1617.90
791.18	1695.72
791.36	1718.25
791.55	1689.57
791.73	1632.23
791.91	1576.94
792.09	1650.66
792.27	1593.32
792.45	1738.73
792.63	1740.77
792.81	1669.09
793.00	1710.05
793.18	1712.10
793.36	1687.53
793.54	1701.86
793.72	1609.70
793.90	1658.85
794.08	1558.50
794.26	1714.15
794.44	1601.51
794.62	1646.57
794.81	1621.99
794.99	1671.14
795.17	1761.25
795.35	1691.62
795.53	1716.20
795.71	1755.11
795.89	1695.72
796.07	1681.38
796.25	1650.66
796.43	1746.92
796.61	1693.67
796.80	1675.24
796.98	1677.29
797.16	1720.29
797.34	1611.75
797.52	1607.66
797.70	1785.83
797.88	1798.12
798.06	1617.90
798.24	1675.24
798.42	1660.90
798.60	1761.25
798.78	1734.63
798.96	1667.05
799.14	1683.43
799.32	1718.25
799.51	1613.80
799.69	1705.96
799.87	1722.34
800.05	1630.18
800.23	1521.64
800.41	1648.61
800.59	1669.09
800.77	1585.13
800.95	1578.98
801.13	1697.77
801.31	1736.68
801.49	1777.64
801.67	1605.61
801.85	1644.52
802.03	1609.70
802.21	1671.14
802.39	1667.05
802.57	1619.94
802.75	1757.16
802.93	1773.54
803.11	1681.38
803.29	1755.11
803.47	1691.62
803.65	1654.76
803.83	1581.03
804.01	1599.46
804.19	1660.90
804.37	1648.61
804.55	1650.66
804.73	1650.66
804.91	1599.46
805.09	1705.96
805.27	1716.20
805.45	1626.09
805.63	1691.62
805.81	1685.48
805.99	1652.71
806.17	1673.19
806.35	1593.32
806.53	1599.46
806.71	1761.25
806.89	1708.01
807.07	1751.01
807.25	1691.62
807.43	1585.13
807.61	1734.63
807.79	1665.00
807.97	1683.43
808.15	1722.34
808.33	1777.64
808.51	1724.39
808.69	1654.76
808.87	1716.20
809.05	1646.57
809.23	1642.47
809.41	1538.02
809.59	1564.65
809.77	1775.59
809.95	1636.33
810.13	1703.91
810.31	1634.28
810.49	1708.01
810.67	1638.38
810.84	1597.42
811.02	1730.53
811.20	1605.61
811.38	1734.63
811.56	1617.90
811.74	1687.53
811.92	1572.84
812.10	1720.29
812.28	1712.10
812.46	1705.96
812.64	1642.47
812.82	1650.66
813.00	1669.09
813.18	1632.23
813.36	1691.62
813.53	1720.29
813.71	1779.68
813.89	1628.14
814.07	1558.50
814.25	1669.09
814.43	1576.94
814.61	1568.74
814.79	1712.10
814.97	1671.14
815.15	1660.90
815.33	1585.13
815.50	1671.14
815.68	1626.09
815.86	1683.43
816.04	1687.53
816.22	1656.81
816.40	1675.24
816.58	1685.48
816.76	1681.38
816.94	1683.43
817.11	1630.18
817.29	1699.81
817.47	1693.67
817.65	1691.62
817.83	1617.90
818.01	1601.51
818.19	1542.12
818.37	1699.81
818.54	1677.29
818.72	1621.99
818.90	1728.49
819.08	1650.66
819.26	1728.49
819.44	1759.21
819.62	1658.85
819.80	1583.08
819.97	1669.09
820.15	1665.00
820.33	1679.33
820.51	1611.75
820.69	1654.76
820.87	1705.96
821.05	1679.33
821.22	1658.85
821.40	1716.20
821.58	1740.77
821.76	1669.09
821.94	1601.51
822.12	1648.61
822.29	1751.01
822.47	1642.47
822.65	1632.23
822.83	1728.49
823.01	1687.53
823.19	1695.72
823.36	1607.66
823.54	1667.05
823.72	1650.66
823.90	1798.12
824.08	1677.29
824.25	1744.87
824.43	1671.14
824.61	1566.70
824.79	1695.72
824.97	1605.61
825.15	1748.97
825.32	1656.81
825.50	1701.86
825.68	1615.85
825.86	1654.76
826.04	1634.28
826.21	1748.97
826.39	1683.43
826.57	1644.52
826.75	1705.96
826.93	1710.05
827.10	1748.97
827.28	1705.96
827.46	1785.83
827.64	1714.15
827.81	1626.09
827.99	1607.66
828.17	1624.04
828.35	1615.85
828.53	1708.01
828.70	1671.14
828.88	1611.75
829.06	1648.61
829.24	1638.38
829.41	1753.06
829.59	1699.81
829.77	1642.47
829.95	1699.81
830.12	1624.04
830.30	1662.95
830.48	1679.33
830.66	1619.94
830.84	1687.53
831.01	1771.49
831.19	1513.45
831.37	1685.48
831.55	1628.14
831.72	1787.88
831.90	1705.96
832.08	1720.29
832.25	1652.71
832.43	1640.42
832.61	1701.86
832.79	1548.26
832.96	1712.10
833.14	1732.58
833.32	1699.81
833.50	1593.32
833.67	1712.10
833.85	1613.80
834.03	1587.18
834.20	1615.85
834.38	1722.34
834.56	1722.34
834.74	1619.94
834.91	1538.02
835.09	1687.53
835.27	1667.05
835.44	1679.33
835.62	1552.36
835.80	1681.38
835.98	1613.80
836.15	1798.12
836.33	1648.61
836.51	1529.83
836.68	1626.09
836.86	1667.05
837.04	1765.35
837.21	1796.07
837.39	1695.72
837.57	1785.83
837.75	1636.33
837.92	1636.33
838.10	1591.27
838.28	1581.03
838.45	1671.14
838.63	1562.60
838.81	1748.97
838.98	1781.73
839.16	1685.48
839.34	1607.66
839.51	1667.05
839.69	1665.00
839.87	1581.03
840.04	1611.75
840.22	1966.05
840.40	1644.52
840.57	1619.94
840.75	1662.95
840.93	1619.94
841.10	1689.57
841.28	1710.05
841.46	1716.20
841.63	1630.18
841.81	1605.61
841.98	1533.93
842.16	1794.02
842.34	1617.90
842.51	1621.99
842.69	1660.90
842.87	1587.18
843.04	1691.62
843.22	1589.22
843.40	1619.94
843.57	1615.85
843.75	1572.84
843.92	1658.85
844.10	1646.57
844.28	1726.44
844.45	1667.05
844.63	1755.11
844.81	1654.76
844.98	1746.92
845.16	1732.58
845.33	1710.05
845.51	1720.29
845.69	1714.15
845.86	1701.86
846.04	1632.23
846.21	1595.37
846.39	1591.27
846.57	1615.85
846.74	1636.33
846.92	1718.25
847.09	1624.04
847.27	1576.94
847.45	1624.04
847.62	1685.48
847.80	1667.05
847.97	1662.95
848.15	1669.09
848.32	1646.57
848.50	1703.91
848.68	1597.42
848.85	1667.05
849.03	1609.70
849.20	1662.95
849.38	1642.47
849.56	1607.66
849.73	1601.51
849.91	1777.64
850.08	1730.53
850.26	1535.98
850.43	1626.09
850.61	1740.77
850.78	1558.50
850.96	1685.48
851.14	1531.88
851.31	1820.64
851.49	1656.81
851.66	1691.62
851.84	1591.27
852.01	1656.81
852.19	1650.66
852.36	1726.44
852.54	1691.62
852.71	1654.76
852.89	1671.14
853.07	1605.61
853.24	1683.43
853.42	1593.32
853.59	1708.01
853.77	1679.33
853.94	1642.47
854.12	1791.97
854.29	1564.65
854.47	1617.90
854.64	1675.24
854.82	1765.35
854.99	1724.39
855.17	1726.44
855.34	1609.70
855.52	1626.09
855.69	1816.55
855.87	1574.89
856.04	1699.81
856.22	1714.15
856.39	1648.61
856.57	1681.38
856.74	1665.00
856.92	1767.40
857.09	1613.80
857.27	1613.80
857.44	1697.77
857.62	1753.06
857.79	1646.57
857.97	1660.90
858.14	1705.96
858.32	1607.66
858.49	1624.04
858.67	1624.04
858.84	1632.23
859.02	1738.73
859.19	1640.42
859.37	1523.69
859.54	1603.56
859.72	1615.85
859.89	1632.23
860.06	1535.98
860.24	1638.38
860.41	1714.15
860.59	1591.27
860.76	1652.71
860.94	1572.84
861.11	1609.70
861.29	1648.61
861.46	1544.17
861.64	1697.77
861.81	1667.05
861.98	1619.94
862.16	1654.76
862.33	1593.32
862.51	1576.94
862.68	1624.04
862.86	1677.29
863.03	1699.81
863.21	1654.76
863.38	1650.66
863.55	1568.74
863.73	1642.47
863.90	1751.01
864.08	1626.09
864.25	1646.57
864.43	1677.29
864.60	1626.09
864.77	1665.00
864.95	1673.19
865.12	1568.74
865.30	1740.77
865.47	1703.91
865.64	1687.53
865.82	1628.14
865.99	1779.68
866.17	1708.01
866.34	1705.96
866.51	1587.18
866.69	1748.97
866.86	1773.54
867.04	1660.90
867.21	1624.04
867.38	1611.75
867.56	1730.53
867.73	1675.24
867.91	1617.90
868.08	1665.00
868.25	1566.70
868.43	1660.90
868.60	1716.20
868.78	1609.70
868.95	1640.42
869.12	1662.95
869.30	1560.55
869.47	1724.39
869.64	1673.19
869.82	1607.66
869.99	1720.29
870.16	1765.35
870.34	1658.85
870.51	1677.29
870.69	1710.05
870.86	1710.05
871.03	1638.38
871.21	1646.57
871.38	1669.09
871.55	1642.47
871.73	1652.71
871.90	1671.14
872.07	1605.61
872.25	1523.69
872.42	1589.22
872.59	1626.09
872.77	1613.80
872.94	1560.55
873.11	1628.14
873.29	1777.64
873.46	1624.04
873.63	1636.33
873.81	1687.53
873.98	1716.20
874.15	1558.50
874.33	1665.00
874.50	1679.33
874.67	1650.66
874.85	1574.89
875.02	1593.32
875.19	1648.61
875.37	1564.65
875.54	1544.17
875.71	1691.62
875.88	1683.43
876.06	1724.39
876.23	1640.42
876.40	1748.97
876.58	1601.51
876.75	1695.72
876.92	1626.09
877.10	1685.48
877.27	1601.51
877.44	1699.81
877.61	1585.13
877.79	1640.42
877.96	1613.80
878.13	1654.76
878.31	1673.19
878.48	1679.33
878.65	1755.11
878.82	1517.54
879.00	1628.14
879.17	1650.66
879.34	1650.66
879.51	1544.17
879.69	1673.19
879.86	1525.74
880.03	1585.13
880.21	1632.23
880.38	1679.33
880.55	1681.38
880.72	1679.33
880.90	1628.14
881.07	1619.94
881.24	1767.40
881.41	1617.90
881.59	1701.86
881.76	1695.72
881.93	1814.50
882.10	1630.18
882.28	1671.14
882.45	1626.09
882.62	1650.66
882.79	1667.05
882.96	1634.28
883.14	1708.01
883.31	1605.61
883.48	1568.74
883.65	1601.51
883.83	1660.90
884.00	1675.24
884.17	1699.81
884.34	1662.95
884.51	1675.24
884.69	1583.08
884.86	1650.66
885.03	1615.85
885.20	1499.11
885.38	1714.15
885.55	1673.19
885.72	1691.62
885.89	1576.94
886.06	1726.44
886.24	1662.95
886.41	1681.38
886.58	1630.18
886.75	1718.25
886.92	1581.03
887.10	1585.13
887.27	1626.09
887.44	1751.01
887.61	1781.73
887.78	1724.39
887.95	1669.09
888.13	1642.47
888.30	1599.46
888.47	1605.61
888.64	1603.56
888.81	1687.53
888.99	1583.08
889.16	1699.81
889.33	1613.80
889.50	1716.20
889.67	1701.86
889.84	1658.85
890.01	1734.63
890.19	1644.52
890.36	1624.04
890.53	1683.43
890.70	1642.47
890.87	1724.39
891.04	1560.55
891.22	1658.85
891.39	1593.32
891.56	1658.85
891.73	1691.62
891.90	1593.32
892.07	1542.12
892.24	1660.90
892.42	1595.37
892.59	1544.17
892.76	1740.77
892.93	1558.50
893.10	1714.15
893.27	1640.42
893.44	1621.99
893.61	1587.18
893.79	1654.76
893.96	1607.66
894.13	1613.80
894.30	1578.98
894.47	1720.29
894.64	1812.45
894.81	1603.56
894.98	1605.61
895.15	1669.09
895.33	1675.24
895.50	1562.60
895.67	1697.77
895.84	1681.38
896.01	1585.13
896.18	1550.31
896.35	1748.97
896.52	1703.91
896.69	1646.57
896.86	1703.91
897.04	1763.30
897.21	1685.48
897.38	1632.23
897.55	1708.01
897.72	1609.70
897.89	1634.28
898.06	1734.63
898.23	1583.08
898.40	1683.43
898.57	1720.29
898.74	1634.28
898.91	1634.28
899.08	1595.37
899.26	1654.76
899.43	1683.43
899.60	1650.66
899.77	1609.70
899.94	1531.88
900.11	1677.29
900.28	1636.33
900.45	1624.04
900.62	1611.75
900.79	1619.94
900.96	1560.55
901.13	1665.00
901.30	1624.04
901.47	1581.03
901.64	1638.38
901.81	1722.34
901.98	1581.03
902.15	1726.44
902.32	1581.03
902.49	1646.57
902.66	1619.94
902.83	1705.96
903.01	1566.70
903.18	1656.81
903.35	1615.85
903.52	1634.28
903.69	1679.33
903.86	1658.85
904.03	1636.33
904.20	1701.86
904.37	1724.39
904.54	1595.37
904.71	1652.71
904.88	1736.68
905.05	1652.71
905.22	1669.09
905.39	1615.85
905.56	1671.14
905.73	1566.70
905.90	1611.75
906.07	1650.66
906.24	1691.62
906.41	1613.80
906.58	1691.62
906.75	1566.70
906.92	1560.55
907.09	1650.66
907.26	1697.77
907.43	1607.66
907.60	1697.77
907.77	1691.62
907.93	1652.71
908.10	1591.27
908.27	1728.49
908.44	1650.66
908.61	1585.13
908.78	1599.46
908.95	1726.44
909.12	1621.99
909.29	1736.68
909.46	1613.80
909.63	1658.85
909.80	1585.13
909.97	1648.61
910.14	1570.79
910.31	1568.74
910.48	1624.04
910.65	1640.42
910.82	1626.09
910.99	1636.33
911.16	1609.70
911.33	1587.18
911.50	1609.70
911.66	1613.80
911.83	1662.95
912.00	1611.75
912.17	1593.32
912.34	1603.56
912.51	1697.77
912.68	1621.99
912.85	1624.04
913.02	1675.24
913.19	1589.22
913.36	1642.47
913.53	1726.44
913.70	1619.94
913.86	1720.29
914.03	1601.51
914.20	1626.09
914.37	1665.00
914.54	1660.90
914.71	1683.43
914.88	1722.34
915.05	1574.89
915.22	1615.85
915.39	1689.57
915.55	1619.94
915.72	1648.61
915.89	1593.32
916.06	1605.61
916.23	1660.90
916.40	1646.57
916.57	1603.56
916.74	1652.71
916.91	1587.18
917.07	1585.13
917.24	1568.74
917.41	1654.76
917.58	1656.81
917.75	1548.26
917.92	1529.83
918.09	1597.42
918.26	1617.90
918.42	1593.32
918.59	1679.33
918.76	1644.52
918.93	1576.94
919.10	1619.94
919.27	1607.66
919.44	1779.68
919.60	1724.39
919.77	1615.85
919.94	1628.14
920.11	1671.14
920.28	1748.97
920.45	1601.51
920.61	1560.55
920.78	1687.53
920.95	1763.30
921.12	1689.57
921.29	1585.13
921.46	1581.03
921.62	1619.94
921.79	1607.66
921.96	1630.18
922.13	1535.98
922.30	1654.76
922.47	1671.14
922.63	1667.05
922.80	1595.37
922.97	1624.04
923.14	1548.26
923.31	1634.28
923.47	1646.57
923.64	1724.39
923.81	1628.14
923.98	1673.19
924.15	1689.57
924.32	1660.90
924.48	1675.24
924.65	1660.90
924.82	1593.32
924.99	1644.52
925.15	1581.03
925.32	1728.49
925.49	1609.70
925.66	1695.72
925.83	1607.66
925.99	1656.81
926.16	1646.57
926.33	1593.32
926.50	1533.93
926.67	1689.57
926.83	1634.28
927.00	1621.99
927.17	1640.42
927.34	1601.51
927.50	1695.72
927.67	1845.22
927.84	1734.63
928.01	1642.47
928.17	1673.19
928.34	1589.22
928.51	1654.76
928.68	1658.85
928.84	1687.53
929.01	1570.79
929.18	1542.12
929.35	1683.43
929.51	1720.29
929.68	1660.90
929.85	1634.28
930.02	1677.29
930.18	1576.94
930.35	1634.28
930.52	1644.52
930.69	1705.96
930.85	1624.04
931.02	1554.41
931.19	1679.33
931.36	1712.10
931.52	1665.00
931.69	1656.81
931.86	1578.98
932.02	1673.19
932.19	1636.33
932.36	1699.81
932.53	1656.81
932.69	1679.33
932.86	1667.05
933.03	1624.04
933.19	1564.65
933.36	1634.28
933.53	1691.62
933.70	1624.04
933.86	1691.62
934.03	1701.86
934.20	1650.66
934.36	1683.43
934.53	1605.61
934.70	1609.70
934.86	1630.18
935.03	1605.61
935.20	1632.23
935.36	1611.75
935.53	1560.55
935.70	1593.32
935.86	1636.33
936.03	1564.65
936.20	1550.31
936.36	1568.74
936.53	1679.33
936.70	1669.09
936.86	1726.44
937.03	1607.66
937.20	1617.90
937.36	1675.24
937.53	1540.07
937.70	1621.99
937.86	1550.31
938.03	1601.51
938.20	1681.38
938.36	1638.38
938.53	1679.33
938.70	1593.32
938.86	1695.72
939.03	1621.99
939.20	1611.75
939.36	1687.53
939.53	1693.67
939.70	1871.84
939.86	1638.38
940.03	1650.66
940.19	1583.08
940.36	1716.20
940.53	1681.38
940.69	1656.81
940.86	1671.14
941.03	1660.90
941.19	1593.32
941.36	1658.85
941.52	1742.82
941.69	1646.57
941.86	1640.42
942.02	1646.57
942.19	1714.15
942.35	1671.14
942.52	1638.38
942.69	1617.90
942.85	1570.79
943.02	1605.61
943.18	1679.33
943.35	1634.28
943.52	1593.32
943.68	1615.85
943.85	1589.22
944.01	1578.98
944.18	1583.08
944.35	1665.00
944.51	1585.13
944.68	1568.74
944.84	1552.36
945.01	1621.99
945.17	1738.73
945.34	1665.00
945.51	1687.53
945.67	1691.62
945.84	1609.70
946.00	1538.02
946.17	1636.33
946.33	1648.61
946.50	1675.24
946.67	1560.55
946.83	1568.74
947.00	1638.38
947.16	1648.61
947.33	1650.66
947.49	1624.04
947.66	1517.54
947.82	1681.38
947.99	1495.02
948.16	1683.43
948.32	1568.74
948.49	1665.00
948.65	1669.09
948.82	1607.66
948.98	1693.67
949.15	1615.85
949.31	1681.38
949.48	1585.13
949.64	1617.90
949.81	1566.70
949.97	1542.12
950.14	1660.90
950.30	1501.16
950.47	1611.75
950.63	1603.56
950.80	1650.66
950.96	1605.61
951.13	1722.34
951.30	1654.76
951.46	1566.70
951.63	1597.42
951.79	1691.62
951.96	1744.87
952.12	1591.27
952.29	1728.49
952.45	1538.02
952.62	1679.33
952.78	1601.51
952.94	1587.18
953.11	1642.47
953.27	1542.12
953.44	1662.95
953.60	1642.47
953.77	1632.23
953.93	1708.01
954.10	1593.32
954.26	1619.94
954.43	1665.00
954.59	1779.68
954.76	1718.25
954.92	1656.81
955.09	1615.85
955.25	1568.74
955.42	1574.89
955.58	1675.24
955.75	1669.09
955.91	1593.32
956.07	1542.12
956.24	1607.66
956.40	1665.00
956.57	1660.90
956.73	1679.33
956.90	1646.57
957.06	1564.65
957.23	1574.89
957.39	1597.42
957.56	1601.51
957.72	1564.65
957.88	1503.21
958.05	1644.52
958.21	1683.43
958.38	1593.32
958.54	1703.91
958.71	1705.96
958.87	1560.55
959.03	1585.13
959.20	1675.24
959.36	1527.78
959.53	1660.90
959.69	1527.78
959.85	1613.80
960.02	1552.36
960.18	1566.70
960.35	1658.85
960.51	1742.82
960.68	1531.88
960.84	1638.38
961.00	1617.90
961.17	1523.69
961.33	1642.47
961.50	1611.75
961.66	1660.90
961.82	1587.18
961.99	1652.71
962.15	1654.76
962.31	1550.31
962.48	1605.61
962.64	1642.47
962.81	1576.94
962.97	1693.67
963.13	1626.09
963.30	1607.66
963.46	1566.70
963.62	1554.41
963.79	1617.90
963.95	1609.70
964.12	1624.04
964.28	1644.52
964.44	1548.26
964.61	1611.75
964.77	1581.03
964.93	1757.16
965.10	1583.08
965.26	1650.66
965.42	1609.70
965.59	1585.13
965.75	1591.27
965.92	1667.05
966.08	1609.70
966.24	1658.85
966.41	1583.08
966.57	1640.42
966.73	1665.00
966.90	1648.61
967.06	1636.33
967.22	1603.56
967.39	1576.94
967.55	1667.05
967.71	1624.04
967.88	1570.79
968.04	1581.03
968.20	1560.55
968.37	1630.18
968.53	1605.61
968.69	1646.57
968.85	1669.09
969.02	1646.57
969.18	1636.33
969.34	1605.61
969.51	1605.61
969.67	1736.68
969.83	1581.03
970.00	1753.06
970.16	1642.47
970.32	1589.22
970.48	1695.72
970.65	1679.33
970.81	1630.18
970.97	1669.09
971.14	1548.26
971.30	1724.39
971.46	1576.94
971.63	1619.94
971.79	1673.19
971.95	1654.76
972.11	1642.47
972.28	1585.13
972.44	1619.94
972.60	1548.26
972.76	1650.66
972.93	1628.14
973.09	1683.43
973.25	1685.48
973.42	1566.70
973.58	1662.95
973.74	1632.23
973.90	1681.38
974.07	1654.76
974.23	1662.95
974.39	1648.61
974.55	1628.14
974.72	1644.52
974.88	1583.08
975.04	1636.33
975.20	1615.85
975.37	1638.38
975.53	1603.56
975.69	1679.33
975.85	1619.94
976.01	1613.80
976.18	1654.76
976.34	1667.05
976.50	1683.43
976.66	1656.81
976.83	1603.56
976.99	1632.23
977.15	1621.99
977.31	1535.98
977.47	1675.24
977.64	1697.77
977.80	1628.14
977.96	1703.91
978.12	1597.42
978.29	1585.13
978.45	1546.22
978.61	1587.18
978.77	1703.91
978.93	1478.63
979.10	1621.99
979.26	1589.22
979.42	1642.47
979.58	1564.65
979.74	1615.85
979.91	1644.52
980.07	1589.22
980.23	1679.33
980.39	1607.66
980.55	1648.61
980.71	1544.17
980.88	1570.79
981.04	1585.13
981.20	1609.70
981.36	1660.90
981.52	1650.66
981.68	1681.38
981.85	1568.74
982.01	1640.42
982.17	1599.46
982.33	1607.66
982.49	1697.77
982.65	1626.09
982.82	1660.90
982.98	1609.70
983.14	1609.70
983.30	1740.77
983.46	1601.51
983.62	1720.29
983.79	1550.31
983.95	1652.71
984.11	1529.83
984.27	1683.43
984.43	1636.33
984.59	1568.74
984.75	1693.67
984.91	1595.37
985.08	1718.25
985.24	1558.50
985.40	1507.30
985.56	1605.61
985.72	1656.81
985.88	1646.57
986.04	1574.89
986.20	1597.42
986.37	1568.74
986.53	1650.66
986.69	1556.46
986.85	1609.70
987.01	1673.19
987.17	1597.42
987.33	1642.47
987.49	1652.71
987.65	1650.66
987.82	1646.57
987.98	1583.08
988.14	1595.37
988.30	1609.70
988.46	1613.80
988.62	1644.52
988.78	1605.61
988.94	1634.28
989.10	1673.19
989.26	1576.94
989.42	1613.80
989.59	1607.66
989.75	1603.56
989.91	1644.52
990.07	1538.02
990.23	1591.27
990.39	1617.90
990.55	1705.96
990.71	1513.45
990.87	1587.18
991.03	1748.97
991.19	1572.84
991.35	1570.79
991.51	1542.12
991.67	1587.18
991.83	1591.27
992.00	1607.66
992.16	1697.77
992.32	1724.39
992.48	1628.14
992.64	1609.70
992.80	1626.09
992.96	1650.66
993.12	1693.67
993.28	1665.00
993.44	1628.14
993.60	1615.85
993.76	1585.13
993.92	1640.42
994.08	1574.89
994.24	1718.25
994.40	1593.32
994.56	1654.76
994.72	1615.85
994.88	1550.31
995.04	1621.99
995.20	1617.90
995.36	1615.85
995.52	1652.71
995.68	1640.42
995.84	1562.60
996.00	1703.91
996.16	1638.38
996.32	1570.79
996.48	1607.66
996.64	1644.52
996.80	1621.99
996.96	1658.85
997.12	1574.89
997.28	1560.55
997.44	1583.08
997.60	1613.80
997.76	1593.32
997.92	1671.14
998.08	1646.57
998.24	1566.70
998.40	1634.28
998.56	1648.61
998.72	1560.55
998.88	1673.19
999.04	1658.85
999.20	1708.01
999.36	1566.70
999.52	1712.10
999.68	1581.03
999.84	1689.57
1000.00	1675.24
1000.16	1683.43
1000.32	1556.46
1000.48	1701.86
1000.64	1525.74
1000.80	1564.65
1000.95	1581.03
1001.11	1685.48
1001.27	1538.02
1001.43	1640.42
1001.59	1460.20
1001.75	1603.56
1001.91	1611.75
1002.07	1572.84
1002.23	1667.05
1002.39	1552.36
1002.55	1576.94
1002.71	1601.51
1002.87	1611.75
1003.03	1597.42
1003.19	1581.03
1003.34	1660.90
1003.50	1634.28
1003.66	1687.53
1003.82	1632.23
1003.98	1578.98
1004.14	1644.52
1004.30	1583.08
1004.46	1546.22
1004.62	1656.81
1004.78	1556.46
1004.94	1589.22
1005.09	1660.90
1005.25	1628.14
1005.41	1687.53
1005.57	1595.37
1005.73	1652.71
1005.89	1585.13
1006.05	1626.09
1006.21	1656.81
1006.37	1581.03
1006.52	1583.08
1006.68	1644.52
1006.84	1691.62
1007.00	1525.74
1007.16	1613.80
1007.32	1609.70
1007.48	1603.56
1007.64	1708.01
1007.79	1605.61
1007.95	1544.17
1008.11	1732.58
1008.27	1642.47
1008.43	1640.42
1008.59	1583.08
1008.75	1687.53
1008.91	1628.14
1009.06	1552.36
1009.22	1652.71
1009.38	1611.75
1009.54	1597.42
1009.70	1568.74
1009.86	1601.51
1010.01	1705.96
1010.17	1583.08
1010.33	1583.08
1010.49	1642.47
1010.65	1619.94
1010.81	1609.70
1010.96	1609.70
1011.12	1583.08
1011.28	1621.99
1011.44	1679.33
1011.60	1628.14
1011.76	1601.51
1011.91	1699.81
1012.07	1583.08
1012.23	1429.48
1012.39	1568.74
1012.55	1658.85
1012.71	1621.99
1012.86	1634.28
1013.02	1587.18
1013.18	1585.13
1013.34	1548.26
1013.50	1630.18
1013.65	1732.58
1013.81	1601.51
1013.97	1546.22
1014.13	1626.09
1014.29	1699.81
1014.44	1675.24
1014.60	1581.03
1014.76	1675.24
1014.92	1644.52
1015.07	1609.70
1015.23	1636.33
1015.39	1533.93
1015.55	1583.08
1015.71	1634.28
1015.86	1644.52
1016.02	1550.31
1016.18	1542.12
1016.34	1613.80
1016.49	1638.38
1016.65	1638.38
1016.81	1564.65
1016.97	1572.84
1017.12	1621.99
1017.28	1546.22
1017.44	1583.08
1017.60	1558.50
1017.75	1595.37
1017.91	1544.17
1018.07	1648.61
1018.23	1656.81
1018.38	1683.43
1018.54	1626.09
1018.70	1654.76
1018.86	1585.13
1019.01	1589.22
1019.17	1705.96
1019.33	1660.90
1019.49	1673.19
1019.64	1593.32
1019.80	1667.05
1019.96	1630.18
1020.12	1574.89
1020.27	1523.69
1020.43	1677.29
1020.59	1679.33
1020.74	1572.84
1020.90	1636.33
1021.06	1587.18
1021.22	1652.71
1021.37	1675.24
1021.53	1558.50
1021.69	1632.23
1021.84	1667.05
1022.00	1574.89
1022.16	1546.22
1022.31	1509.35
1022.47	1597.42
1022.63	1599.46
1022.79	1501.16
1022.94	1548.26
1023.10	1714.15
1023.26	1517.54
1023.41	1558.50
1023.57	1597.42
1023.73	1662.95
1023.88	1630.18
1024.04	1548.26
1024.20	1578.98
1024.35	1632.23
1024.51	1658.85
1024.67	1619.94
1024.82	1624.04
1024.98	1589.22
1025.14	1644.52
1025.29	1654.76
1025.45	1617.90
1025.61	1605.61
1025.76	1650.66
1025.92	1677.29
1026.08	1597.42
1026.23	1617.90
1026.39	1673.19
1026.55	1638.38
1026.70	1591.27
1026.86	1654.76
1027.02	1630.18
1027.17	1613.80
1027.33	1720.29
1027.48	1689.57
1027.64	1589.22
1027.80	1587.18
1027.95	1646.57
1028.11	1527.78
1028.27	1632.23
1028.42	1658.85
1028.58	1601.51
1028.73	1660.90
1028.89	1615.85
1029.05	1736.68
1029.20	1638.38
>>>>>End Processed Spectral Data<<<<<
