SpectraSuite Data File
++++++++++++++++++++++++++++++++++++
Date: Fri Jun 02 14:51:06 CEST 2017
User: INFO_000
Dark Spectrum Present: No
Reference Spectrum Present: No
Number of Sampled Component Spectra: 1
Spectrometers: USB4H00879
Integration Time (usec): 80000 (USB4H00879)
Spectra Averaged: 1 (USB4H00879)
Boxcar Smoothing: 0 (USB4H00879)
Correct for Electrical Dark: No (USB4H00879)
Strobe/Lamp Enabled: No (USB4H00879)
Correct for Detector Non-linearity: No (USB4H00879)
Correct for Stray Light: No (USB4H00879)
Number of Pixels in Processed Spectrum: 3648
>>>>>Begin Processed Spectral Data<<<<<
345.13	1282.03
345.34	1282.03
345.56	1282.03
345.78	1322.99
345.99	1294.32
346.21	1662.95
346.42	1724.39
346.64	1699.81
346.86	1781.73
347.07	1615.85
347.29	1697.77
347.50	1630.18
347.72	1726.44
347.94	1796.07
348.15	1566.70
348.37	1675.24
348.59	1673.19
348.80	1650.66
349.02	1699.81
349.23	1771.49
349.45	1736.68
349.67	1804.26
349.88	1675.24
350.10	1832.93
350.31	1701.86
350.53	1675.24
350.75	1902.56
350.96	1648.61
351.18	1722.34
351.39	1650.66
351.61	1634.28
351.82	1722.34
352.04	1775.59
352.26	1732.58
352.47	1753.06
352.69	1759.21
352.90	1658.85
353.12	1712.10
353.34	1695.72
353.55	1818.60
353.77	1748.97
353.98	1665.00
354.20	1720.29
354.41	1767.40
354.63	1810.40
354.85	1787.88
355.06	1755.11
355.28	1656.81
355.49	1667.05
355.71	1687.53
355.92	1669.09
356.14	1738.73
356.35	1757.16
356.57	1630.18
356.79	1738.73
357.00	1621.99
357.22	1761.25
357.43	1693.67
357.65	1804.26
357.86	1615.85
358.08	1685.48
358.29	1785.83
358.51	1769.44
358.72	1708.01
358.94	1708.01
359.16	1644.52
359.37	1679.33
359.59	1673.19
359.80	1826.79
360.02	1775.59
360.23	1726.44
360.45	1708.01
360.66	1667.05
360.88	1689.57
361.09	1679.33
361.31	1693.67
361.52	1740.77
361.74	1740.77
361.95	1789.92
362.17	1699.81
362.38	1802.21
362.60	1730.53
362.81	1759.21
363.03	1740.77
363.24	1712.10
363.46	1716.20
363.67	1738.73
363.89	1763.30
364.10	1716.20
364.32	1705.96
364.53	1791.97
364.75	1630.18
364.96	1728.49
365.18	1720.29
365.39	1705.96
365.61	1683.43
365.82	1853.41
366.04	1732.58
366.25	1728.49
366.47	1726.44
366.68	1699.81
366.90	1660.90
367.11	1689.57
367.33	1798.12
367.54	1753.06
367.76	1685.48
367.97	1779.68
368.19	1748.97
368.40	1699.81
368.62	1683.43
368.83	1665.00
369.05	1787.88
369.26	1746.92
369.48	1654.76
369.69	1597.42
369.91	1736.68
370.12	1708.01
370.33	1699.81
370.55	1714.15
370.76	1726.44
370.98	1787.88
371.19	1718.25
371.41	1720.29
371.62	1658.85
371.84	1691.62
372.05	1789.92
372.27	1722.34
372.48	1679.33
372.69	1658.85
372.91	1748.97
373.12	1718.25
373.34	1699.81
373.55	1703.91
373.77	1726.44
373.98	1732.58
374.20	1820.64
374.41	1845.22
374.62	1683.43
374.84	1632.23
375.05	1691.62
375.27	1753.06
375.48	1740.77
375.70	1687.53
375.91	1765.35
376.12	1834.98
376.34	1640.42
376.55	1697.77
376.77	1722.34
376.98	1665.00
377.19	1683.43
377.41	1646.57
377.62	1720.29
377.84	1716.20
378.05	1830.88
378.27	1667.05
378.48	1832.93
378.69	1851.36
378.91	1744.87
379.12	1705.96
379.34	1685.48
379.55	1765.35
379.76	1755.11
379.98	1687.53
380.19	1671.14
380.41	1755.11
380.62	1710.05
380.83	1744.87
381.05	1617.90
381.26	1765.35
381.47	1613.80
381.69	1679.33
381.90	1880.04
382.12	1732.58
382.33	1677.29
382.54	1724.39
382.76	1675.24
382.97	1703.91
383.19	1656.81
383.40	1728.49
383.61	1677.29
383.83	1638.38
384.04	1693.67
384.25	1687.53
384.47	1708.01
384.68	1734.63
384.89	1568.74
385.11	1560.55
385.32	1658.85
385.54	1621.99
385.75	1695.72
385.96	1654.76
386.18	1621.99
386.39	1738.73
386.60	1650.66
386.82	1701.86
387.03	1654.76
387.24	1767.40
387.46	1644.52
387.67	1779.68
387.88	1759.21
388.10	1703.91
388.31	1695.72
388.52	1732.58
388.74	1685.48
388.95	1650.66
389.16	1689.57
389.38	1644.52
389.59	1736.68
389.80	1791.97
390.02	1708.01
390.23	1802.21
390.44	1683.43
390.66	1638.38
390.87	1568.74
391.08	1722.34
391.30	1763.30
391.51	1740.77
391.72	1757.16
391.94	1712.10
392.15	1673.19
392.36	1611.75
392.58	1632.23
392.79	1746.92
393.00	1724.39
393.22	1746.92
393.43	1755.11
393.64	1761.25
393.85	1773.54
394.07	1609.70
394.28	1673.19
394.49	1728.49
394.71	1867.75
394.92	1802.21
395.13	1652.71
395.35	1718.25
395.56	1705.96
395.77	1710.05
395.98	1746.92
396.20	1712.10
396.41	1736.68
396.62	1845.22
396.84	1683.43
397.05	1685.48
397.26	1722.34
397.47	1791.97
397.69	1697.77
397.90	1837.03
398.11	1765.35
398.32	1665.00
398.54	1646.57
398.75	1675.24
398.96	1667.05
399.18	1794.02
399.39	1703.91
399.60	1703.91
399.81	1691.62
400.03	1644.52
400.24	1939.43
400.45	1732.58
400.66	1726.44
400.88	1716.20
401.09	1898.47
401.30	1699.81
401.51	1818.60
401.73	1804.26
401.94	1732.58
402.15	1716.20
402.36	1712.10
402.58	1708.01
402.79	1769.44
403.00	1662.95
403.21	1742.82
403.43	1837.03
403.64	1759.21
403.85	1578.98
404.06	1740.77
404.27	1624.04
404.49	1656.81
404.70	1619.94
404.91	1726.44
405.12	1683.43
405.34	1744.87
405.55	1781.73
405.76	1603.56
405.97	1646.57
406.19	1808.36
406.40	1710.05
406.61	1716.20
406.82	1656.81
407.03	1675.24
407.25	1613.80
407.46	1781.73
407.67	1712.10
407.88	1751.01
408.09	1710.05
408.31	1640.42
408.52	1681.38
408.73	1644.52
408.94	1638.38
409.15	1691.62
409.37	1798.12
409.58	1708.01
409.79	1687.53
410.00	1783.78
410.21	1617.90
410.43	1705.96
410.64	1599.46
410.85	1781.73
411.06	1720.29
411.27	1734.63
411.48	1753.06
411.70	1753.06
411.91	1748.97
412.12	1796.07
412.33	1732.58
412.54	1699.81
412.76	1714.15
412.97	1798.12
413.18	1708.01
413.39	1816.55
413.60	1777.64
413.81	1757.16
414.03	1621.99
414.24	1626.09
414.45	1810.40
414.66	1646.57
414.87	1708.01
415.08	1724.39
415.30	1699.81
415.51	1796.07
415.72	1710.05
415.93	1703.91
416.14	1738.73
416.35	1753.06
416.56	1716.20
416.78	1728.49
416.99	1712.10
417.20	1800.16
417.41	1726.44
417.62	1720.29
417.83	1722.34
418.04	1703.91
418.26	1716.20
418.47	1744.87
418.68	1732.58
418.89	1732.58
419.10	1871.84
419.31	1703.91
419.52	1751.01
419.73	1703.91
419.95	1744.87
420.16	1699.81
420.37	1607.66
420.58	1724.39
420.79	1611.75
421.00	1601.51
421.21	1648.61
421.42	1619.94
421.63	1677.29
421.85	1712.10
422.06	1634.28
422.27	1644.52
422.48	1667.05
422.69	1751.01
422.90	1679.33
423.11	1634.28
423.32	1773.54
423.53	1812.45
423.75	1710.05
423.96	1740.77
424.17	1757.16
424.38	1757.16
424.59	1695.72
424.80	1728.49
425.01	1738.73
425.22	1699.81
425.43	1761.25
425.64	1794.02
425.85	1816.55
426.06	1748.97
426.28	1689.57
426.49	1562.60
426.70	1673.19
426.91	1734.63
427.12	1673.19
427.33	1669.09
427.54	1673.19
427.75	1722.34
427.96	1748.97
428.17	1757.16
428.38	1576.94
428.59	1740.77
428.80	1615.85
429.01	1667.05
429.23	1687.53
429.44	1613.80
429.65	1632.23
429.86	1728.49
430.07	1765.35
430.28	1665.00
430.49	1675.24
430.70	1640.42
430.91	1785.83
431.12	1609.70
431.33	1675.24
431.54	1767.40
431.75	1728.49
431.96	1738.73
432.17	1697.77
432.38	1744.87
432.59	1777.64
432.80	1714.15
433.01	1654.76
433.22	1716.20
433.43	1691.62
433.64	1673.19
433.85	1755.11
434.06	1669.09
434.27	1636.33
434.49	1679.33
434.70	1710.05
434.91	1757.16
435.12	1714.15
435.33	1746.92
435.54	1726.44
435.75	1595.37
435.96	1699.81
436.17	1779.68
436.38	1738.73
436.59	1687.53
436.80	1650.66
437.01	1798.12
437.22	1740.77
437.43	1740.77
437.64	1689.57
437.85	1710.05
438.06	1765.35
438.27	1667.05
438.48	1609.70
438.69	1742.82
438.90	1679.33
439.11	1718.25
439.32	1818.60
439.53	1638.38
439.74	1619.94
439.95	1662.95
440.16	1576.94
440.37	1710.05
440.57	1681.38
440.78	1665.00
440.99	1656.81
441.20	1673.19
441.41	1540.07
441.62	1644.52
441.83	1656.81
442.04	1632.23
442.25	1615.85
442.46	1652.71
442.67	1609.70
442.88	1841.12
443.09	1679.33
443.30	1636.33
443.51	1673.19
443.72	1759.21
443.93	1630.18
444.14	1794.02
444.35	1630.18
444.56	1693.67
444.77	1675.24
444.98	1687.53
445.19	1755.11
445.40	1787.88
445.61	1716.20
445.81	1671.14
446.02	1806.31
446.23	1736.68
446.44	1669.09
446.65	1667.05
446.86	1748.97
447.07	1841.12
447.28	1654.76
447.49	1648.61
447.70	1662.95
447.91	1734.63
448.12	1634.28
448.33	1712.10
448.54	1751.01
448.74	1701.86
448.95	1810.40
449.16	1769.44
449.37	1763.30
449.58	1796.07
449.79	1738.73
450.00	1697.77
450.21	1681.38
450.42	1724.39
450.63	1697.77
450.84	1613.80
451.05	1773.54
451.25	1662.95
451.46	1658.85
451.67	1828.84
451.88	1714.15
452.09	1724.39
452.30	1732.58
452.51	1685.48
452.72	1763.30
452.93	1828.84
453.13	1601.51
453.34	1603.56
453.55	1697.77
453.76	1656.81
453.97	1644.52
454.18	1613.80
454.39	1689.57
454.60	1724.39
454.81	1632.23
455.01	1757.16
455.22	1578.98
455.43	1632.23
455.64	1742.82
455.85	1699.81
456.06	1710.05
456.27	1751.01
456.48	1718.25
456.68	1712.10
456.89	1753.06
457.10	1720.29
457.31	1626.09
457.52	1757.16
457.73	1675.24
457.94	1789.92
458.14	1615.85
458.35	1705.96
458.56	1624.04
458.77	1712.10
458.98	1667.05
459.19	1736.68
459.39	1703.91
459.60	1765.35
459.81	1591.27
460.02	1660.90
460.23	1712.10
460.44	1601.51
460.65	1683.43
460.85	1652.71
461.06	1662.95
461.27	1679.33
461.48	1679.33
461.69	1628.14
461.89	1542.12
462.10	1687.53
462.31	1609.70
462.52	1628.14
462.73	1601.51
462.94	1693.67
463.14	1697.77
463.35	1658.85
463.56	1791.97
463.77	1681.38
463.98	1552.36
464.18	1761.25
464.39	1724.39
464.60	1716.20
464.81	1613.80
465.02	1742.82
465.23	1691.62
465.43	1722.34
465.64	1673.19
465.85	1583.08
466.06	1714.15
466.27	1746.92
466.47	1671.14
466.68	1732.58
466.89	1669.09
467.10	1626.09
467.30	1673.19
467.51	1773.54
467.72	1736.68
467.93	1560.55
468.14	1642.47
468.34	1740.77
468.55	1722.34
468.76	1759.21
468.97	1660.90
469.17	1746.92
469.38	1779.68
469.59	1716.20
469.80	1732.58
470.01	1693.67
470.21	1607.66
470.42	1632.23
470.63	1681.38
470.84	1658.85
471.04	1646.57
471.25	1724.39
471.46	1667.05
471.67	1828.84
471.87	1673.19
472.08	1687.53
472.29	1699.81
472.50	1683.43
472.70	1691.62
472.91	1687.53
473.12	1619.94
473.33	1687.53
473.53	1689.57
473.74	1621.99
473.95	1689.57
474.16	1632.23
474.36	1705.96
474.57	1796.07
474.78	1595.37
474.99	1765.35
475.19	1716.20
475.40	1748.97
475.61	1732.58
475.81	1765.35
476.02	1654.76
476.23	1673.19
476.44	1601.51
476.64	1675.24
476.85	1658.85
477.06	1691.62
477.27	1636.33
477.47	1710.05
477.68	1675.24
477.89	1644.52
478.09	1742.82
478.30	1732.58
478.51	1673.19
478.71	1601.51
478.92	1742.82
479.13	1724.39
479.34	1673.19
479.54	1718.25
479.75	1667.05
479.96	1761.25
480.16	1703.91
480.37	1691.62
480.58	1695.72
480.78	1820.64
480.99	1611.75
481.20	1654.76
481.41	1722.34
481.61	1699.81
481.82	1802.21
482.03	1726.44
482.23	1687.53
482.44	1777.64
482.65	1826.79
482.85	1785.83
483.06	1685.48
483.27	1841.12
483.47	1693.67
483.68	1650.66
483.89	1728.49
484.09	1726.44
484.30	1736.68
484.51	1736.68
484.71	1675.24
484.92	1720.29
485.13	1777.64
485.33	1644.52
485.54	1636.33
485.75	1742.82
485.95	1714.15
486.16	1699.81
486.37	1718.25
486.57	1603.56
486.78	1677.29
486.98	1775.59
487.19	1599.46
487.40	1736.68
487.60	1773.54
487.81	1615.85
488.02	1650.66
488.22	1654.76
488.43	1828.84
488.64	1703.91
488.84	1621.99
489.05	1767.40
489.25	1689.57
489.46	1662.95
489.67	1628.14
489.87	1712.10
490.08	1751.01
490.29	1589.22
490.49	1736.68
490.70	1724.39
490.90	1687.53
491.11	1765.35
491.32	1763.30
491.52	1667.05
491.73	1630.18
491.94	1652.71
492.14	1617.90
492.35	1794.02
492.55	1755.11
492.76	1638.38
492.97	1636.33
493.17	1781.73
493.38	1769.44
493.58	1802.21
493.79	1722.34
494.00	1705.96
494.20	1609.70
494.41	1794.02
494.61	1798.12
494.82	1734.63
495.02	1609.70
495.23	1769.44
495.44	1724.39
495.64	1740.77
495.85	1730.53
496.05	1716.20
496.26	1738.73
496.47	1689.57
496.67	1638.38
496.88	1740.77
497.08	1763.30
497.29	1640.42
497.49	1736.68
497.70	1705.96
497.91	1634.28
498.11	1703.91
498.32	1646.57
498.52	1714.15
498.73	1722.34
498.93	1728.49
499.14	1763.30
499.34	1755.11
499.55	1689.57
499.76	1708.01
499.96	1765.35
500.17	1683.43
500.37	1765.35
500.58	1757.16
500.78	1611.75
500.99	1654.76
501.19	1665.00
501.40	1812.45
501.60	1589.22
501.81	1695.72
502.02	1779.68
502.22	1738.73
502.43	1712.10
502.63	1826.79
502.84	1671.14
503.04	1738.73
503.25	1675.24
503.45	1665.00
503.66	1697.77
503.86	1796.07
504.07	1800.16
504.27	1626.09
504.48	1742.82
504.68	1710.05
504.89	1871.84
505.09	1662.95
505.30	1652.71
505.50	1710.05
505.71	1636.33
505.91	1732.58
506.12	1705.96
506.32	1769.44
506.53	1710.05
506.73	1613.80
506.94	1665.00
507.14	1742.82
507.35	1755.11
507.55	1656.81
507.76	1724.39
507.96	1683.43
508.17	1757.16
508.37	1646.57
508.58	1830.88
508.78	1712.10
508.99	1814.50
509.19	1710.05
509.40	1621.99
509.60	1699.81
509.81	1761.25
510.01	1751.01
510.22	1681.38
510.42	1812.45
510.63	1783.78
510.83	1705.96
511.04	1681.38
511.24	1798.12
511.44	1699.81
511.65	1677.29
511.85	1669.09
512.06	1740.77
512.26	1630.18
512.47	1775.59
512.67	1685.48
512.88	1751.01
513.08	1615.85
513.29	1794.02
513.49	1640.42
513.69	1710.05
513.90	1703.91
514.10	1814.50
514.31	1652.71
514.51	1591.27
514.72	1712.10
514.92	1736.68
515.13	1652.71
515.33	1662.95
515.53	1685.48
515.74	1701.86
515.94	1673.19
516.15	1703.91
516.35	1628.14
516.56	1601.51
516.76	1613.80
516.96	1693.67
517.17	1738.73
517.37	1732.58
517.58	1632.23
517.78	1626.09
517.99	1761.25
518.19	1785.83
518.39	1712.10
518.60	1712.10
518.80	1677.29
519.01	1779.68
519.21	1697.77
519.41	1748.97
519.62	1570.79
519.82	1728.49
520.03	1679.33
520.23	1650.66
520.43	1646.57
520.64	1781.73
520.84	1796.07
521.05	1667.05
521.25	1748.97
521.45	1722.34
521.66	1611.75
521.86	1697.77
522.07	1703.91
522.27	1644.52
522.47	1703.91
522.68	1689.57
522.88	1695.72
523.08	1742.82
523.29	1638.38
523.49	1617.90
523.70	1640.42
523.90	1705.96
524.10	1746.92
524.31	1646.57
524.51	1621.99
524.71	1724.39
524.92	1658.85
525.12	1617.90
525.33	1720.29
525.53	1714.15
525.73	1734.63
525.94	1718.25
526.14	1628.14
526.34	1593.32
526.55	1638.38
526.75	1730.53
526.95	1824.74
527.16	1665.00
527.36	1679.33
527.56	1691.62
527.77	1607.66
527.97	1738.73
528.17	1765.35
528.38	1697.77
528.58	1640.42
528.78	1683.43
528.99	1677.29
529.19	1693.67
529.39	1617.90
529.60	1638.38
529.80	1679.33
530.00	1679.33
530.21	1683.43
530.41	1699.81
530.61	1703.91
530.82	1673.19
531.02	1662.95
531.22	1699.81
531.43	1705.96
531.63	1736.68
531.83	1691.62
532.04	1828.84
532.24	1642.47
532.44	1712.10
532.64	1787.88
532.85	1662.95
533.05	1728.49
533.25	1665.00
533.46	1753.06
533.66	1738.73
533.86	1662.95
534.07	1789.92
534.27	1648.61
534.47	1759.21
534.67	1779.68
534.88	1718.25
535.08	1734.63
535.28	1755.11
535.49	1613.80
535.69	1802.21
535.89	1714.15
536.09	1771.49
536.30	1740.77
536.50	1710.05
536.70	1714.15
536.91	1679.33
537.11	1730.53
537.31	1673.19
537.51	1679.33
537.72	1712.10
537.92	1714.15
538.12	1699.81
538.32	1738.73
538.53	1728.49
538.73	1728.49
538.93	1695.72
539.13	1746.92
539.34	1738.73
539.54	1697.77
539.74	1738.73
539.94	1712.10
540.15	1740.77
540.35	1679.33
540.55	1632.23
540.75	1646.57
540.96	1665.00
541.16	1714.15
541.36	1765.35
541.56	1734.63
541.77	1810.40
541.97	1673.19
542.17	1675.24
542.37	1759.21
542.58	1748.97
542.78	1718.25
542.98	1730.53
543.18	1771.49
543.38	1761.25
543.59	1734.63
543.79	1581.03
543.99	1683.43
544.19	1624.04
544.40	1748.97
544.60	1699.81
544.80	1693.67
545.00	1624.04
545.20	1837.03
545.41	1732.58
545.61	1634.28
545.81	1699.81
546.01	1644.52
546.21	1679.33
546.42	1658.85
546.62	1820.64
546.82	1656.81
547.02	1660.90
547.22	1683.43
547.43	1720.29
547.63	1767.40
547.83	1632.23
548.03	1716.20
548.23	1753.06
548.44	1708.01
548.64	1634.28
548.84	1759.21
549.04	1718.25
549.24	1767.40
549.45	1875.94
549.65	1781.73
549.85	1701.86
550.05	1685.48
550.25	1568.74
550.45	1855.46
550.66	1777.64
550.86	1771.49
551.06	1783.78
551.26	1656.81
551.46	1615.85
551.66	1675.24
551.87	1660.90
552.07	1611.75
552.27	1617.90
552.47	1718.25
552.67	1701.86
552.87	1671.14
553.07	1662.95
553.28	1650.66
553.48	1775.59
553.68	1615.85
553.88	1693.67
554.08	1703.91
554.28	1611.75
554.48	1685.48
554.69	1720.29
554.89	1626.09
555.09	1656.81
555.29	1619.94
555.49	1697.77
555.69	1632.23
555.89	1769.44
556.10	1683.43
556.30	1683.43
556.50	1691.62
556.70	1720.29
556.90	1720.29
557.10	1781.73
557.30	1767.40
557.50	1673.19
557.70	1658.85
557.91	1673.19
558.11	1728.49
558.31	1773.54
558.51	1730.53
558.71	1728.49
558.91	1710.05
559.11	1611.75
559.31	1658.85
559.51	1695.72
559.72	1789.92
559.92	1699.81
560.12	1662.95
560.32	1748.97
560.52	1673.19
560.72	1621.99
560.92	1732.58
561.12	1740.77
561.32	1712.10
561.52	1642.47
561.72	1789.92
561.93	1785.83
562.13	1685.48
562.33	1687.53
562.53	1765.35
562.73	1738.73
562.93	1597.42
563.13	1816.55
563.33	1789.92
563.53	1732.58
563.73	1753.06
563.93	1806.31
564.13	1796.07
564.33	1728.49
564.53	1640.42
564.74	1644.52
564.94	1718.25
565.14	1775.59
565.34	1796.07
565.54	1726.44
565.74	1738.73
565.94	1671.14
566.14	1712.10
566.34	1679.33
566.54	1726.44
566.74	1726.44
566.94	1691.62
567.14	1726.44
567.34	1658.85
567.54	1681.38
567.74	1781.73
567.94	1773.54
568.14	1619.94
568.34	1796.07
568.54	1679.33
568.74	1697.77
568.94	1755.11
569.14	1800.16
569.34	1710.05
569.54	1597.42
569.75	1646.57
569.95	1683.43
570.15	1751.01
570.35	1724.39
570.55	1685.48
570.75	1705.96
570.95	1701.86
571.15	1708.01
571.35	1632.23
571.55	1775.59
571.75	1695.72
571.95	1724.39
572.15	1701.86
572.35	1748.97
572.55	1697.77
572.75	1660.90
572.95	1632.23
573.15	1761.25
573.35	1753.06
573.55	1806.31
573.75	1609.70
573.95	1892.32
574.15	1716.20
574.35	1740.77
574.55	1753.06
574.75	1613.80
574.95	1640.42
575.15	1687.53
575.34	1679.33
575.54	1669.09
575.74	1705.96
575.94	1779.68
576.14	1644.52
576.34	1669.09
576.54	1744.87
576.74	1755.11
576.94	1603.56
577.14	1744.87
577.34	1771.49
577.54	1644.52
577.74	1658.85
577.94	1716.20
578.14	1665.00
578.34	1783.78
578.54	1683.43
578.74	1748.97
578.94	1699.81
579.14	1779.68
579.34	1585.13
579.54	1710.05
579.74	1767.40
579.94	1732.58
580.13	1730.53
580.33	1576.94
580.53	1669.09
580.73	1671.14
580.93	1783.78
581.13	1669.09
581.33	1675.24
581.53	1683.43
581.73	1746.92
581.93	1628.14
582.13	1677.29
582.33	1732.58
582.53	1634.28
582.73	1746.92
582.92	1640.42
583.12	1755.11
583.32	1708.01
583.52	1632.23
583.72	1869.80
583.92	1816.55
584.12	1734.63
584.32	1679.33
584.52	1560.55
584.72	1656.81
584.92	1683.43
585.11	1689.57
585.31	1798.12
585.51	1726.44
585.71	1777.64
585.91	1818.60
586.11	1638.38
586.31	1703.91
586.51	1667.05
586.71	1751.01
586.91	1685.48
587.10	1716.20
587.30	1755.11
587.50	1673.19
587.70	1593.32
587.90	1724.39
588.10	1654.76
588.30	1667.05
588.50	1648.61
588.69	1677.29
588.89	1753.06
589.09	1771.49
589.29	1656.81
589.49	1628.14
589.69	1685.48
589.89	1751.01
590.08	1687.53
590.28	1689.57
590.48	1665.00
590.68	1753.06
590.88	1644.52
591.08	1705.96
591.28	1693.67
591.47	1720.29
591.67	1595.37
591.87	1734.63
592.07	1785.83
592.27	1705.96
592.47	1605.61
592.67	1736.68
592.86	1687.53
593.06	1669.09
593.26	1771.49
593.46	1697.77
593.66	1662.95
593.86	1796.07
594.05	1767.40
594.25	1714.15
594.45	1662.95
594.65	1806.31
594.85	1761.25
595.05	1748.97
595.24	1730.53
595.44	1677.29
595.64	1667.05
595.84	1740.77
596.04	1785.83
596.23	1730.53
596.43	1738.73
596.63	1712.10
596.83	1753.06
597.03	1828.84
597.22	1691.62
597.42	1820.64
597.62	1798.12
597.82	1722.34
598.02	1701.86
598.21	1673.19
598.41	1695.72
598.61	1699.81
598.81	1650.66
599.01	1615.85
599.20	1705.96
599.40	1675.24
599.60	1740.77
599.80	1683.43
600.00	1802.21
600.19	1685.48
600.39	1683.43
600.59	1667.05
600.79	1751.01
600.98	1736.68
601.18	1708.01
601.38	1718.25
601.58	1638.38
601.78	1777.64
601.97	1814.50
602.17	1689.57
602.37	1708.01
602.57	1775.59
602.76	1751.01
602.96	1665.00
603.16	1636.33
603.36	1712.10
603.55	1675.24
603.75	1662.95
603.95	1705.96
604.15	1771.49
604.34	1767.40
604.54	1708.01
604.74	1830.88
604.94	1681.38
605.13	1724.39
605.33	1650.66
605.53	1710.05
605.73	1810.40
605.92	1691.62
606.12	1648.61
606.32	1693.67
606.52	1724.39
606.71	1742.82
606.91	1695.72
607.11	1701.86
607.30	1732.58
607.50	1738.73
607.70	1763.30
607.90	1718.25
608.09	1697.77
608.29	1757.16
608.49	1787.88
608.68	1673.19
608.88	1697.77
609.08	1658.85
609.28	1691.62
609.47	1628.14
609.67	1753.06
609.87	1667.05
610.06	1808.36
610.26	1683.43
610.46	1779.68
610.66	1591.27
610.85	1710.05
611.05	1794.02
611.25	1769.44
611.44	1624.04
611.64	1683.43
611.84	1724.39
612.03	1714.15
612.23	1712.10
612.43	1761.25
612.62	1669.09
612.82	1699.81
613.02	1738.73
613.21	1744.87
613.41	1777.64
613.61	1660.90
613.80	1675.24
614.00	1574.89
614.20	1724.39
614.39	1794.02
614.59	1765.35
614.79	1650.66
614.98	1667.05
615.18	1675.24
615.38	1710.05
615.57	1576.94
615.77	1806.31
615.97	1667.05
616.16	1753.06
616.36	1699.81
616.56	1699.81
616.75	1732.58
616.95	1652.71
617.15	1757.16
617.34	1697.77
617.54	1763.30
617.74	1785.83
617.93	1837.03
618.13	1650.66
618.32	1751.01
618.52	1746.92
618.72	1632.23
618.91	1740.77
619.11	1804.26
619.31	1781.73
619.50	1638.38
619.70	1640.42
619.90	1716.20
620.09	1808.36
620.29	1708.01
620.48	1900.52
620.68	1705.96
620.88	1701.86
621.07	1742.82
621.27	1710.05
621.46	1763.30
621.66	1738.73
621.86	1742.82
622.05	1697.77
622.25	1867.75
622.44	1691.62
622.64	1730.53
622.84	1744.87
623.03	1679.33
623.23	1730.53
623.42	1804.26
623.62	1802.21
623.82	1738.73
624.01	1726.44
624.21	1665.00
624.40	1810.40
624.60	1677.29
624.80	1667.05
624.99	1699.81
625.19	1705.96
625.38	1697.77
625.58	1665.00
625.77	1699.81
625.97	1710.05
626.17	1675.24
626.36	1650.66
626.56	1736.68
626.75	1634.28
626.95	1697.77
627.14	1695.72
627.34	1708.01
627.54	1810.40
627.73	1871.84
627.93	1748.97
628.12	1685.48
628.32	1681.38
628.51	1720.29
628.71	1894.37
628.90	1722.34
629.10	1656.81
629.30	1708.01
629.49	1691.62
629.69	1642.47
629.88	1705.96
630.08	1828.84
630.27	1843.17
630.47	1693.67
630.66	1710.05
630.86	1691.62
631.05	1667.05
631.25	1681.38
631.44	1777.64
631.64	1667.05
631.84	1644.52
632.03	1841.12
632.23	1665.00
632.42	1708.01
632.62	1646.57
632.81	1673.19
633.01	1798.12
633.20	1826.79
633.40	1804.26
633.59	1767.40
633.79	1728.49
633.98	1771.49
634.18	1808.36
634.37	1736.68
634.57	1732.58
634.76	1765.35
634.96	1802.21
635.15	1818.60
635.35	1757.16
635.54	1722.34
635.74	1761.25
635.93	1669.09
636.13	1632.23
636.32	1775.59
636.52	1820.64
636.71	1791.97
636.91	1708.01
637.10	1705.96
637.30	1765.35
637.49	1705.96
637.69	1716.20
637.88	1722.34
638.08	1613.80
638.27	1638.38
638.46	1685.48
638.66	1705.96
638.85	1615.85
639.05	1753.06
639.24	1869.80
639.44	1714.15
639.63	1720.29
639.83	1708.01
640.02	1734.63
640.22	1708.01
640.41	1605.61
640.61	1767.40
640.80	1722.34
640.99	1714.15
641.19	1806.31
641.38	1834.98
641.58	1646.57
641.77	1732.58
641.97	1712.10
642.16	1660.90
642.36	1742.82
642.55	1699.81
642.74	1880.04
642.94	1693.67
643.13	1673.19
643.33	1824.74
643.52	1746.92
643.72	1738.73
643.91	1736.68
644.10	1789.92
644.30	1751.01
644.49	1808.36
644.69	1679.33
644.88	1730.53
645.08	1777.64
645.27	1794.02
645.46	1638.38
645.66	1722.34
645.85	1697.77
646.05	1675.24
646.24	1638.38
646.43	1665.00
646.63	1730.53
646.82	1716.20
647.02	1771.49
647.21	1873.89
647.40	1615.85
647.60	1636.33
647.79	1787.88
647.99	1716.20
648.18	1675.24
648.37	1765.35
648.57	1667.05
648.76	1658.85
648.96	1703.91
649.15	1699.81
649.34	1781.73
649.54	1716.20
649.73	1660.90
649.92	1689.57
650.12	1736.68
650.31	1617.90
650.51	1998.82
650.70	1718.25
650.89	1734.63
651.09	1744.87
651.28	1796.07
651.47	1644.52
651.67	1746.92
651.86	1853.41
652.06	1667.05
652.25	1796.07
652.44	1634.28
652.64	1714.15
652.83	1730.53
653.02	1740.77
653.22	1839.08
653.41	1613.80
653.60	1753.06
653.80	1660.90
653.99	1671.14
654.18	1665.00
654.38	1585.13
654.57	1781.73
654.76	1716.20
654.96	1691.62
655.15	1603.56
655.34	1708.01
655.54	1646.57
655.73	1695.72
655.92	1687.53
656.12	1708.01
656.31	1757.16
656.50	1730.53
656.70	1779.68
656.89	1646.57
657.08	1669.09
657.28	1718.25
657.47	1714.15
657.66	1671.14
657.86	1652.71
658.05	1714.15
658.24	1742.82
658.43	1683.43
658.63	1609.70
658.82	1685.48
659.01	1767.40
659.21	1812.45
659.40	1726.44
659.59	1746.92
659.79	1687.53
659.98	1755.11
660.17	1710.05
660.36	1665.00
660.56	1722.34
660.75	1759.21
660.94	1710.05
661.14	1708.01
661.33	1675.24
661.52	1712.10
661.71	1730.53
661.91	1722.34
662.10	1736.68
662.29	1546.22
662.49	1728.49
662.68	1693.67
662.87	1595.37
663.06	1718.25
663.26	1658.85
663.45	1845.22
663.64	1693.67
663.83	1671.14
664.03	1824.74
664.22	1748.97
664.41	1804.26
664.60	1818.60
664.80	1617.90
664.99	1738.73
665.18	1740.77
665.37	1685.48
665.57	1859.56
665.76	1738.73
665.95	1701.86
666.14	1738.73
666.34	1662.95
666.53	1658.85
666.72	1642.47
666.91	1744.87
667.11	1714.15
667.30	1896.42
667.49	1632.23
667.68	1816.55
667.87	1753.06
668.07	1822.69
668.26	1638.38
668.45	1726.44
668.64	1652.71
668.84	1789.92
669.03	1728.49
669.22	1726.44
669.41	1759.21
669.60	1613.80
669.80	1769.44
669.99	1728.49
670.18	1658.85
670.37	1826.79
670.57	1753.06
670.76	1708.01
670.95	1744.87
671.14	1767.40
671.33	1736.68
671.53	1755.11
671.72	1742.82
671.91	1798.12
672.10	1701.86
672.29	1634.28
672.48	1691.62
672.68	1744.87
672.87	1740.77
673.06	1724.39
673.25	1699.81
673.44	1634.28
673.64	1673.19
673.83	1654.76
674.02	1726.44
674.21	1853.41
674.40	1753.06
674.59	1714.15
674.79	1724.39
674.98	1755.11
675.17	1808.36
675.36	1699.81
675.55	1677.29
675.74	1658.85
675.94	1861.60
676.13	1738.73
676.32	1714.15
676.51	1718.25
676.70	1660.90
676.89	1705.96
677.08	1755.11
677.28	1814.50
677.47	1695.72
677.66	1724.39
677.85	1679.33
678.04	1705.96
678.23	1742.82
678.42	1740.77
678.62	1669.09
678.81	1703.91
679.00	1724.39
679.19	1787.88
679.38	1724.39
679.57	1677.29
679.76	1654.76
679.96	1609.70
680.15	1773.54
680.34	1730.53
680.53	1789.92
680.72	1808.36
680.91	1679.33
681.10	1732.58
681.29	1701.86
681.48	1757.16
681.68	1687.53
681.87	1834.98
682.06	1775.59
682.25	1824.74
682.44	1603.56
682.63	1832.93
682.82	1581.03
683.01	1814.50
683.20	1675.24
683.39	1753.06
683.59	1746.92
683.78	1679.33
683.97	1789.92
684.16	1654.76
684.35	1621.99
684.54	1765.35
684.73	1669.09
684.92	1644.52
685.11	1794.02
685.30	1744.87
685.49	1712.10
685.69	1806.31
685.88	1642.47
686.07	1574.89
686.26	1673.19
686.45	1718.25
686.64	1691.62
686.83	1724.39
687.02	1708.01
687.21	1771.49
687.40	1695.72
687.59	1845.22
687.78	1746.92
687.97	1830.88
688.16	1746.92
688.35	1667.05
688.54	1669.09
688.74	1564.65
688.93	1703.91
689.12	1734.63
689.31	1759.21
689.50	1771.49
689.69	1638.38
689.88	1740.77
690.07	1644.52
690.26	1693.67
690.45	1636.33
690.64	1650.66
690.83	1628.14
691.02	1699.81
691.21	1757.16
691.40	1673.19
691.59	1800.16
691.78	1767.40
691.97	1665.00
692.16	1699.81
692.35	1677.29
692.54	1781.73
692.73	1617.90
692.92	1775.59
693.11	1734.63
693.30	1726.44
693.49	1716.20
693.68	1738.73
693.87	1755.11
694.06	1673.19
694.25	1662.95
694.44	1710.05
694.63	1716.20
694.82	1675.24
695.01	1691.62
695.20	1708.01
695.39	1638.38
695.58	1695.72
695.77	1576.94
695.96	1701.86
696.15	1755.11
696.34	1638.38
696.53	1673.19
696.72	1621.99
696.91	1634.28
697.10	1722.34
697.29	1714.15
697.48	1845.22
697.67	1789.92
697.86	1673.19
698.05	1769.44
698.24	1765.35
698.43	1654.76
698.62	1763.30
698.81	1626.09
699.00	1705.96
699.19	1757.16
699.38	1781.73
699.57	1650.66
699.76	1830.88
699.95	1626.09
700.14	1683.43
700.32	1732.58
700.51	1681.38
700.70	1701.86
700.89	1806.31
701.08	1728.49
701.27	1648.61
701.46	1849.32
701.65	1781.73
701.84	1667.05
702.03	1652.71
702.22	1757.16
702.41	1746.92
702.60	1771.49
702.79	1740.77
702.98	1652.71
703.17	1689.57
703.35	1720.29
703.54	1732.58
703.73	1740.77
703.92	1628.14
704.11	1646.57
704.30	1753.06
704.49	1769.44
704.68	1626.09
704.87	1691.62
705.06	1818.60
705.25	1660.90
705.43	1701.86
705.62	1712.10
705.81	1791.97
706.00	1689.57
706.19	1765.35
706.38	1632.23
706.57	1765.35
706.76	1632.23
706.95	1740.77
707.14	1705.96
707.32	1677.29
707.51	1644.52
707.70	1642.47
707.89	1710.05
708.08	1753.06
708.27	1736.68
708.46	1695.72
708.65	1675.24
708.84	1708.01
709.02	1654.76
709.21	1685.48
709.40	1765.35
709.59	1673.19
709.78	1656.81
709.97	1697.77
710.16	1701.86
710.34	1798.12
710.53	1771.49
710.72	1693.67
710.91	1785.83
711.10	1691.62
711.29	1574.89
711.48	1773.54
711.66	1695.72
711.85	1708.01
712.04	1726.44
712.23	1640.42
712.42	1662.95
712.61	1796.07
712.80	1642.47
712.98	1683.43
713.17	1667.05
713.36	1695.72
713.55	1796.07
713.74	1722.34
713.93	1816.55
714.11	1626.09
714.30	1624.04
714.49	1714.15
714.68	1607.66
714.87	1642.47
715.06	1794.02
715.24	1761.25
715.43	1642.47
715.62	1593.32
715.81	1658.85
716.00	1703.91
716.18	1603.56
716.37	1802.21
716.56	1650.66
716.75	1720.29
716.94	1714.15
717.12	1751.01
717.31	1630.18
717.50	1691.62
717.69	1771.49
717.88	1728.49
718.06	1703.91
718.25	1757.16
718.44	1716.20
718.63	1744.87
718.82	1689.57
719.00	1650.66
719.19	1802.21
719.38	1689.57
719.57	1669.09
719.76	1736.68
719.94	1564.65
720.13	1691.62
720.32	1765.35
720.51	1673.19
720.69	1724.39
720.88	1730.53
721.07	1695.72
721.26	1820.64
721.44	1794.02
721.63	1738.73
721.82	1736.68
722.01	1734.63
722.20	1667.05
722.38	1683.43
722.57	1636.33
722.76	1628.14
722.95	1595.37
723.13	1689.57
723.32	1744.87
723.51	1759.21
723.70	1705.96
723.88	1708.01
724.07	1691.62
724.26	1751.01
724.44	1730.53
724.63	1738.73
724.82	1673.19
725.01	1671.14
725.19	1634.28
725.38	1751.01
725.57	1703.91
725.76	1701.86
725.94	1640.42
726.13	1695.72
726.32	1683.43
726.51	1742.82
726.69	1630.18
726.88	1593.32
727.07	1736.68
727.25	1728.49
727.44	1644.52
727.63	1677.29
727.82	1671.14
728.00	1708.01
728.19	1728.49
728.38	1697.77
728.56	1681.38
728.75	1765.35
728.94	1777.64
729.12	1687.53
729.31	1636.33
729.50	1687.53
729.69	1763.30
729.87	1703.91
730.06	1636.33
730.25	1658.85
730.43	1753.06
730.62	1669.09
730.81	1685.48
730.99	1724.39
731.18	1650.66
731.37	1589.22
731.55	1671.14
731.74	1685.48
731.93	1669.09
732.11	1695.72
732.30	1742.82
732.49	1662.95
732.67	1632.23
732.86	1634.28
733.05	1624.04
733.23	1798.12
733.42	1597.42
733.61	1605.61
733.79	1722.34
733.98	1699.81
734.17	1673.19
734.35	1767.40
734.54	1730.53
734.73	1716.20
734.91	1525.74
735.10	1687.53
735.29	1699.81
735.47	1638.38
735.66	1667.05
735.84	1771.49
736.03	1640.42
736.22	1714.15
736.40	1656.81
736.59	1558.50
736.78	1656.81
736.96	1617.90
737.15	1732.58
737.33	1654.76
737.52	1673.19
737.71	1710.05
737.89	1714.15
738.08	1656.81
738.27	1761.25
738.45	1726.44
738.64	1671.14
738.82	1667.05
739.01	1724.39
739.20	1730.53
739.38	1712.10
739.57	1650.66
739.75	1714.15
739.94	1759.21
740.13	1621.99
740.31	1761.25
740.50	1722.34
740.68	1681.38
740.87	1624.04
741.06	1845.22
741.24	1751.01
741.43	1650.66
741.61	1615.85
741.80	1679.33
741.99	1732.58
742.17	1787.88
742.36	1568.74
742.54	1673.19
742.73	1794.02
742.91	1691.62
743.10	1730.53
743.29	1716.20
743.47	1675.24
743.66	1650.66
743.84	1644.52
744.03	1679.33
744.21	1689.57
744.40	1720.29
744.59	1671.14
744.77	1648.61
744.96	1787.88
745.14	1697.77
745.33	1742.82
745.51	1771.49
745.70	1726.44
745.88	1669.09
746.07	1761.25
746.26	1763.30
746.44	1726.44
746.63	1599.46
746.81	1730.53
747.00	1697.77
747.18	1658.85
747.37	1650.66
747.55	1697.77
747.74	1923.04
747.92	1726.44
748.11	1658.85
748.29	1617.90
748.48	1742.82
748.66	1714.15
748.85	1765.35
749.03	1724.39
749.22	1650.66
749.41	1683.43
749.59	1681.38
749.78	1665.00
749.96	1601.51
750.15	1712.10
750.33	1751.01
750.52	1654.76
750.70	1695.72
750.89	1734.63
751.07	1685.48
751.26	1751.01
751.44	1599.46
751.63	1697.77
751.81	1691.62
752.00	1599.46
752.18	1683.43
752.37	1703.91
752.55	1669.09
752.74	1675.24
752.92	1687.53
753.10	1773.54
753.29	1669.09
753.47	1677.29
753.66	1609.70
753.84	1646.57
754.03	1636.33
754.21	1638.38
754.40	1701.86
754.58	1746.92
754.77	1728.49
754.95	1687.53
755.14	1736.68
755.32	1665.00
755.51	1572.84
755.69	1687.53
755.88	1638.38
756.06	1740.77
756.24	1636.33
756.43	1738.73
756.61	1675.24
756.80	1552.36
756.98	1710.05
757.17	1730.53
757.35	1718.25
757.54	1740.77
757.72	1648.61
757.90	1679.33
758.09	1755.11
758.27	1662.95
758.46	1658.85
758.64	1710.05
758.83	1695.72
759.01	1716.20
759.19	1660.90
759.38	1734.63
759.56	1673.19
759.75	1710.05
759.93	1751.01
760.12	1675.24
760.30	1716.20
760.48	1640.42
760.67	1669.09
760.85	1728.49
761.04	1726.44
761.22	1648.61
761.40	1687.53
761.59	1617.90
761.77	1656.81
761.96	1689.57
762.14	1665.00
762.32	1757.16
762.51	1619.94
762.69	1699.81
762.88	1726.44
763.06	1619.94
763.24	1726.44
763.43	1695.72
763.61	1671.14
763.80	1673.19
763.98	1699.81
764.16	1648.61
764.35	1617.90
764.53	1648.61
764.72	1619.94
764.90	1705.96
765.08	1740.77
765.27	1714.15
765.45	1630.18
765.63	1636.33
765.82	1748.97
766.00	1665.00
766.18	1689.57
766.37	1630.18
766.55	1656.81
766.74	1665.00
766.92	1621.99
767.10	1595.37
767.29	1783.78
767.47	1667.05
767.65	1699.81
767.84	1726.44
768.02	1791.97
768.20	1708.01
768.39	1675.24
768.57	1632.23
768.75	1632.23
768.94	1783.78
769.12	1611.75
769.30	1658.85
769.49	1718.25
769.67	1679.33
769.85	1810.40
770.04	1660.90
770.22	1718.25
770.40	1732.58
770.59	1748.97
770.77	1630.18
770.95	1691.62
771.14	1665.00
771.32	1589.22
771.50	1601.51
771.69	1578.98
771.87	1724.39
772.05	1720.29
772.24	1636.33
772.42	1708.01
772.60	1695.72
772.78	1783.78
772.97	1562.60
773.15	1658.85
773.33	1761.25
773.52	1638.38
773.70	1626.09
773.88	1701.86
774.07	1642.47
774.25	1642.47
774.43	1718.25
774.61	1652.71
774.80	1570.79
774.98	1740.77
775.16	1681.38
775.34	1716.20
775.53	1689.57
775.71	1716.20
775.89	1677.29
776.08	1611.75
776.26	1646.57
776.44	1650.66
776.62	1615.85
776.81	1617.90
776.99	1665.00
777.17	1708.01
777.35	1783.78
777.54	1726.44
777.72	1699.81
777.90	1630.18
778.08	1652.71
778.27	1710.05
778.45	1648.61
778.63	1740.77
778.81	1744.87
779.00	1695.72
779.18	1714.15
779.36	1810.40
779.54	1654.76
779.73	1728.49
779.91	1652.71
780.09	1660.90
780.27	1675.24
780.46	1699.81
780.64	1624.04
780.82	1689.57
781.00	1574.89
781.19	1658.85
781.37	1646.57
781.55	1695.72
781.73	1699.81
781.91	1665.00
782.10	1744.87
782.28	1699.81
782.46	1675.24
782.64	1732.58
782.82	1734.63
783.01	1662.95
783.19	1708.01
783.37	1695.72
783.55	1677.29
783.74	1712.10
783.92	1568.74
784.10	1685.48
784.28	1640.42
784.46	1681.38
784.64	1693.67
784.83	1736.68
785.01	1830.88
785.19	1791.97
785.37	1693.67
785.55	1626.09
785.74	1685.48
785.92	1667.05
786.10	1601.51
786.28	1802.21
786.46	1718.25
786.64	1693.67
786.83	1642.47
787.01	1757.16
787.19	1753.06
787.37	1773.54
787.55	1732.58
787.74	1673.19
787.92	1701.86
788.10	1626.09
788.28	1603.56
788.46	1691.62
788.64	1683.43
788.82	1703.91
789.01	1646.57
789.19	1677.29
789.37	1724.39
789.55	1619.94
789.73	1671.14
789.91	1708.01
790.09	1681.38
790.28	1578.98
790.46	1587.18
790.64	1726.44
790.82	1691.62
791.00	1667.05
791.18	1669.09
791.36	1705.96
791.55	1679.33
791.73	1677.29
791.91	1638.38
792.09	1679.33
792.27	1599.46
792.45	1742.82
792.63	1695.72
792.81	1689.57
793.00	1699.81
793.18	1652.71
793.36	1662.95
793.54	1705.96
793.72	1648.61
793.90	1683.43
794.08	1605.61
794.26	1652.71
794.44	1572.84
794.62	1652.71
794.81	1667.05
794.99	1636.33
795.17	1746.92
795.35	1675.24
795.53	1724.39
795.71	1810.40
795.89	1683.43
796.07	1720.29
796.25	1660.90
796.43	1728.49
796.61	1695.72
796.80	1740.77
796.98	1716.20
797.16	1667.05
797.34	1675.24
797.52	1595.37
797.70	1673.19
797.88	1703.91
798.06	1691.62
798.24	1738.73
798.42	1578.98
798.60	1740.77
798.78	1724.39
798.96	1691.62
799.14	1646.57
799.32	1701.86
799.51	1603.56
799.69	1720.29
799.87	1746.92
800.05	1650.66
800.23	1699.81
800.41	1609.70
800.59	1630.18
800.77	1718.25
800.95	1556.46
801.13	1716.20
801.31	1656.81
801.49	1804.26
801.67	1667.05
801.85	1636.33
802.03	1617.90
802.21	1603.56
802.39	1591.27
802.57	1673.19
802.75	1662.95
802.93	1738.73
803.11	1585.13
803.29	1753.06
803.47	1708.01
803.65	1624.04
803.83	1591.27
804.01	1640.42
804.19	1632.23
804.37	1630.18
804.55	1675.24
804.73	1685.48
804.91	1605.61
805.09	1718.25
805.27	1708.01
805.45	1632.23
805.63	1673.19
805.81	1751.01
805.99	1722.34
806.17	1689.57
806.35	1646.57
806.53	1675.24
806.71	1769.44
806.89	1640.42
807.07	1736.68
807.25	1757.16
807.43	1609.70
807.61	1685.48
807.79	1652.71
807.97	1738.73
808.15	1669.09
808.33	1728.49
808.51	1802.21
808.69	1640.42
808.87	1720.29
809.05	1609.70
809.23	1603.56
809.41	1662.95
809.59	1613.80
809.77	1722.34
809.95	1667.05
810.13	1697.77
810.31	1630.18
810.49	1806.31
810.67	1650.66
810.84	1699.81
811.02	1624.04
811.20	1640.42
811.38	1791.97
811.56	1677.29
811.74	1634.28
811.92	1626.09
812.10	1691.62
812.28	1652.71
812.46	1744.87
812.64	1665.00
812.82	1556.46
813.00	1683.43
813.18	1570.79
813.36	1699.81
813.53	1646.57
813.71	1736.68
813.89	1667.05
814.07	1634.28
814.25	1748.97
814.43	1646.57
814.61	1554.41
814.79	1624.04
814.97	1626.09
815.15	1685.48
815.33	1607.66
815.50	1576.94
815.68	1667.05
815.86	1773.54
816.04	1708.01
816.22	1681.38
816.40	1732.58
816.58	1677.29
816.76	1640.42
816.94	1691.62
817.11	1667.05
817.29	1720.29
817.47	1638.38
817.65	1673.19
817.83	1658.85
818.01	1544.17
818.19	1621.99
818.37	1708.01
818.54	1761.25
818.72	1687.53
818.90	1693.67
819.08	1675.24
819.26	1658.85
819.44	1802.21
819.62	1673.19
819.80	1583.08
819.97	1716.20
820.15	1746.92
820.33	1685.48
820.51	1615.85
820.69	1730.53
820.87	1675.24
821.05	1679.33
821.22	1535.98
821.40	1716.20
821.58	1767.40
821.76	1613.80
821.94	1695.72
822.12	1660.90
822.29	1753.06
822.47	1667.05
822.65	1699.81
822.83	1562.60
823.01	1746.92
823.19	1585.13
823.36	1685.48
823.54	1601.51
823.72	1642.47
823.90	1712.10
824.08	1609.70
824.25	1783.78
824.43	1626.09
824.61	1607.66
824.79	1761.25
824.97	1605.61
825.15	1708.01
825.32	1683.43
825.50	1710.05
825.68	1593.32
825.86	1734.63
826.04	1613.80
826.21	1720.29
826.39	1636.33
826.57	1646.57
826.75	1740.77
826.93	1679.33
827.10	1703.91
827.28	1617.90
827.46	1712.10
827.64	1691.62
827.81	1671.14
827.99	1658.85
828.17	1673.19
828.35	1581.03
828.53	1658.85
828.70	1679.33
828.88	1648.61
829.06	1601.51
829.24	1630.18
829.41	1699.81
829.59	1683.43
829.77	1626.09
829.95	1679.33
830.12	1570.79
830.30	1710.05
830.48	1716.20
830.66	1619.94
830.84	1632.23
831.01	1667.05
831.19	1581.03
831.37	1755.11
831.55	1728.49
831.72	1662.95
831.90	1658.85
832.08	1621.99
832.25	1660.90
832.43	1757.16
832.61	1751.01
832.79	1581.03
832.96	1744.87
833.14	1734.63
833.32	1644.52
833.50	1556.46
833.67	1685.48
833.85	1632.23
834.03	1634.28
834.20	1617.90
834.38	1724.39
834.56	1689.57
834.74	1626.09
834.91	1656.81
835.09	1775.59
835.27	1589.22
835.44	1650.66
835.62	1632.23
835.80	1613.80
835.98	1642.47
836.15	1652.71
836.33	1675.24
836.51	1572.84
836.68	1619.94
836.86	1609.70
837.04	1671.14
837.21	1832.93
837.39	1644.52
837.57	1679.33
837.75	1708.01
837.92	1667.05
838.10	1652.71
838.28	1601.51
838.45	1626.09
838.63	1540.07
838.81	1777.64
838.98	1689.57
839.16	1681.38
839.34	1613.80
839.51	1611.75
839.69	1562.60
839.87	1597.42
840.04	1650.66
840.22	1902.56
840.40	1626.09
840.57	1636.33
840.75	1722.34
840.93	1628.14
841.10	1667.05
841.28	1705.96
841.46	1609.70
841.63	1687.53
841.81	1589.22
841.98	1630.18
842.16	1748.97
842.34	1597.42
842.51	1499.11
842.69	1691.62
842.87	1562.60
843.04	1662.95
843.22	1626.09
843.40	1581.03
843.57	1628.14
843.75	1609.70
843.92	1652.71
844.10	1703.91
844.28	1650.66
844.45	1697.77
844.63	1689.57
844.81	1662.95
844.98	1761.25
845.16	1697.77
845.33	1685.48
845.51	1607.66
845.69	1681.38
845.86	1748.97
846.04	1640.42
846.21	1605.61
846.39	1572.84
846.57	1581.03
846.74	1642.47
846.92	1658.85
847.09	1660.90
847.27	1630.18
847.45	1701.86
847.62	1650.66
847.80	1738.73
847.97	1652.71
848.15	1722.34
848.32	1593.32
848.50	1658.85
848.68	1626.09
848.85	1708.01
849.03	1562.60
849.20	1626.09
849.38	1617.90
849.56	1638.38
849.73	1636.33
849.91	1601.51
850.08	1693.67
850.26	1605.61
850.43	1673.19
850.61	1720.29
850.78	1544.17
850.96	1697.77
851.14	1552.36
851.31	1894.37
851.49	1638.38
851.66	1656.81
851.84	1572.84
852.01	1607.66
852.19	1671.14
852.36	1646.57
852.54	1630.18
852.71	1624.04
852.89	1693.67
853.07	1638.38
853.24	1613.80
853.42	1615.85
853.59	1669.09
853.77	1662.95
853.94	1695.72
854.12	1757.16
854.29	1581.03
854.47	1632.23
854.64	1640.42
854.82	1771.49
854.99	1697.77
855.17	1708.01
855.34	1548.26
855.52	1683.43
855.69	1759.21
855.87	1652.71
856.04	1624.04
856.22	1705.96
856.39	1636.33
856.57	1712.10
856.74	1617.90
856.92	1753.06
857.09	1617.90
857.27	1611.75
857.44	1748.97
857.62	1699.81
857.79	1703.91
857.97	1722.34
858.14	1656.81
858.32	1718.25
858.49	1708.01
858.67	1609.70
858.84	1646.57
859.02	1701.86
859.19	1626.09
859.37	1560.55
859.54	1591.27
859.72	1695.72
859.89	1734.63
860.06	1509.35
860.24	1609.70
860.41	1701.86
860.59	1652.71
860.76	1681.38
860.94	1634.28
861.11	1673.19
861.29	1697.77
861.46	1693.67
861.64	1609.70
861.81	1748.97
861.98	1619.94
862.16	1578.98
862.33	1691.62
862.51	1626.09
862.68	1613.80
862.86	1624.04
863.03	1613.80
863.21	1601.51
863.38	1712.10
863.55	1558.50
863.73	1685.48
863.90	1640.42
864.08	1613.80
864.25	1685.48
864.43	1689.57
864.60	1599.46
864.77	1605.61
864.95	1722.34
865.12	1617.90
865.30	1667.05
865.47	1699.81
865.64	1658.85
865.82	1656.81
865.99	1771.49
866.17	1650.66
866.34	1710.05
866.51	1560.55
866.69	1705.96
866.86	1785.83
867.04	1652.71
867.21	1611.75
867.38	1677.29
867.56	1626.09
867.73	1634.28
867.91	1593.32
868.08	1699.81
868.25	1578.98
868.43	1591.27
868.60	1642.47
868.78	1654.76
868.95	1697.77
869.12	1677.29
869.30	1652.71
869.47	1695.72
869.64	1615.85
869.82	1621.99
869.99	1562.60
870.16	1712.10
870.34	1699.81
870.51	1728.49
870.69	1595.37
870.86	1609.70
871.03	1667.05
871.21	1632.23
871.38	1828.84
871.55	1632.23
871.73	1605.61
871.90	1656.81
872.07	1638.38
872.25	1613.80
872.42	1654.76
872.59	1603.56
872.77	1638.38
872.94	1677.29
873.11	1632.23
873.29	1728.49
873.46	1658.85
873.63	1613.80
873.81	1562.60
873.98	1593.32
874.15	1583.08
874.33	1662.95
874.50	1691.62
874.67	1611.75
874.85	1591.27
875.02	1656.81
875.19	1648.61
875.37	1638.38
875.54	1595.37
875.71	1636.33
875.88	1716.20
876.06	1605.61
876.23	1648.61
876.40	1736.68
876.58	1654.76
876.75	1671.14
876.92	1568.74
877.10	1650.66
877.27	1687.53
877.44	1691.62
877.61	1662.95
877.79	1730.53
877.96	1660.90
878.13	1667.05
878.31	1585.13
878.48	1652.71
878.65	1753.06
878.82	1613.80
879.00	1603.56
879.17	1691.62
879.34	1574.89
879.51	1589.22
879.69	1701.86
879.86	1497.07
880.03	1648.61
880.21	1613.80
880.38	1650.66
880.55	1759.21
880.72	1718.25
880.90	1648.61
881.07	1626.09
881.24	1679.33
881.41	1556.46
881.59	1634.28
881.76	1642.47
881.93	1675.24
882.10	1621.99
882.28	1624.04
882.45	1658.85
882.62	1705.96
882.79	1695.72
882.96	1552.36
883.14	1656.81
883.31	1673.19
883.48	1535.98
883.65	1650.66
883.83	1624.04
884.00	1613.80
884.17	1660.90
884.34	1667.05
884.51	1667.05
884.69	1716.20
884.86	1748.97
885.03	1632.23
885.20	1521.64
885.38	1652.71
885.55	1646.57
885.72	1681.38
885.89	1593.32
886.06	1685.48
886.24	1564.65
886.41	1593.32
886.58	1708.01
886.75	1759.21
886.92	1638.38
887.10	1609.70
887.27	1583.08
887.44	1699.81
887.61	1734.63
887.78	1683.43
887.95	1662.95
888.13	1613.80
888.30	1626.09
888.47	1667.05
888.64	1665.00
888.81	1648.61
888.99	1642.47
889.16	1705.96
889.33	1621.99
889.50	1634.28
889.67	1667.05
889.84	1687.53
890.01	1648.61
890.19	1767.40
890.36	1689.57
890.53	1640.42
890.70	1665.00
890.87	1697.77
891.04	1632.23
891.22	1703.91
891.39	1636.33
891.56	1705.96
891.73	1714.15
891.90	1699.81
892.07	1527.78
892.24	1677.29
892.42	1667.05
892.59	1593.32
892.76	1681.38
892.93	1605.61
893.10	1605.61
893.27	1697.77
893.44	1556.46
893.61	1624.04
893.79	1699.81
893.96	1617.90
894.13	1583.08
894.30	1607.66
894.47	1763.30
894.64	1669.09
894.81	1646.57
894.98	1535.98
895.15	1705.96
895.33	1646.57
895.50	1550.31
895.67	1654.76
895.84	1650.66
896.01	1701.86
896.18	1603.56
896.35	1699.81
896.52	1714.15
896.69	1581.03
896.86	1667.05
897.04	1667.05
897.21	1697.77
897.38	1642.47
897.55	1673.19
897.72	1683.43
897.89	1621.99
898.06	1640.42
898.23	1609.70
898.40	1789.92
898.57	1601.51
898.74	1636.33
898.91	1601.51
899.08	1665.00
899.26	1675.24
899.43	1675.24
899.60	1656.81
899.77	1646.57
899.94	1599.46
900.11	1673.19
900.28	1619.94
900.45	1650.66
900.62	1562.60
900.79	1757.16
900.96	1640.42
901.13	1615.85
901.30	1609.70
901.47	1529.83
901.64	1642.47
901.81	1802.21
901.98	1638.38
902.15	1691.62
902.32	1591.27
902.49	1646.57
902.66	1724.39
902.83	1652.71
903.01	1587.18
903.18	1617.90
903.35	1654.76
903.52	1634.28
903.69	1683.43
903.86	1667.05
904.03	1667.05
904.20	1667.05
904.37	1673.19
904.54	1568.74
904.71	1640.42
904.88	1654.76
905.05	1619.94
905.22	1617.90
905.39	1611.75
905.56	1564.65
905.73	1574.89
905.90	1615.85
906.07	1626.09
906.24	1757.16
906.41	1652.71
906.58	1644.52
906.75	1652.71
906.92	1566.70
907.09	1613.80
907.26	1613.80
907.43	1634.28
907.60	1671.14
907.77	1640.42
907.93	1619.94
908.10	1558.50
908.27	1683.43
908.44	1658.85
908.61	1587.18
908.78	1654.76
908.95	1693.67
909.12	1662.95
909.29	1611.75
909.46	1617.90
909.63	1701.86
909.80	1636.33
909.97	1642.47
910.14	1665.00
910.31	1542.12
910.48	1693.67
910.65	1617.90
910.82	1615.85
910.99	1640.42
911.16	1703.91
911.33	1683.43
911.50	1636.33
911.66	1683.43
911.83	1665.00
912.00	1581.03
912.17	1558.50
912.34	1527.78
912.51	1656.81
912.68	1568.74
912.85	1593.32
913.02	1693.67
913.19	1640.42
913.36	1605.61
913.53	1804.26
913.70	1628.14
913.86	1689.57
914.03	1685.48
914.20	1560.55
914.37	1611.75
914.54	1603.56
914.71	1708.01
914.88	1693.67
915.05	1640.42
915.22	1603.56
915.39	1673.19
915.55	1701.86
915.72	1576.94
915.89	1581.03
916.06	1599.46
916.23	1662.95
916.40	1722.34
916.57	1689.57
916.74	1681.38
916.91	1644.52
917.07	1527.78
917.24	1544.17
917.41	1716.20
917.58	1683.43
917.75	1585.13
917.92	1519.59
918.09	1621.99
918.26	1617.90
918.42	1607.66
918.59	1783.78
918.76	1642.47
918.93	1632.23
919.10	1542.12
919.27	1607.66
919.44	1755.11
919.60	1632.23
919.77	1652.71
919.94	1621.99
920.11	1652.71
920.28	1755.11
920.45	1611.75
920.61	1568.74
920.78	1656.81
920.95	1730.53
921.12	1703.91
921.29	1634.28
921.46	1595.37
921.62	1519.59
921.79	1656.81
921.96	1656.81
922.13	1626.09
922.30	1605.61
922.47	1611.75
922.63	1654.76
922.80	1570.79
922.97	1556.46
923.14	1556.46
923.31	1632.23
923.47	1656.81
923.64	1785.83
923.81	1632.23
923.98	1802.21
924.15	1585.13
924.32	1630.18
924.48	1708.01
924.65	1693.67
924.82	1531.88
924.99	1591.27
925.15	1624.04
925.32	1783.78
925.49	1603.56
925.66	1720.29
925.83	1624.04
925.99	1632.23
926.16	1628.14
926.33	1644.52
926.50	1566.70
926.67	1593.32
926.83	1632.23
927.00	1675.24
927.17	1581.03
927.34	1607.66
927.50	1615.85
927.67	1777.64
927.84	1658.85
928.01	1630.18
928.17	1679.33
928.34	1589.22
928.51	1619.94
928.68	1603.56
928.84	1611.75
929.01	1601.51
929.18	1554.41
929.35	1689.57
929.51	1648.61
929.68	1581.03
929.85	1695.72
930.02	1648.61
930.18	1593.32
930.35	1662.95
930.52	1560.55
930.69	1587.18
930.85	1654.76
931.02	1630.18
931.19	1611.75
931.36	1570.79
931.52	1671.14
931.69	1689.57
931.86	1615.85
932.02	1624.04
932.19	1607.66
932.36	1705.96
932.53	1687.53
932.69	1669.09
932.86	1753.06
933.03	1609.70
933.19	1546.22
933.36	1642.47
933.53	1732.58
933.70	1581.03
933.86	1703.91
934.03	1691.62
934.20	1650.66
934.36	1726.44
934.53	1558.50
934.70	1665.00
934.86	1689.57
935.03	1605.61
935.20	1667.05
935.36	1724.39
935.53	1544.17
935.70	1658.85
935.86	1646.57
936.03	1476.59
936.20	1542.12
936.36	1589.22
936.53	1675.24
936.70	1558.50
936.86	1810.40
937.03	1607.66
937.20	1603.56
937.36	1695.72
937.53	1570.79
937.70	1533.93
937.86	1544.17
938.03	1617.90
938.20	1720.29
938.36	1554.41
938.53	1751.01
938.70	1558.50
938.86	1597.42
939.03	1640.42
939.20	1599.46
939.36	1611.75
939.53	1710.05
939.70	1789.92
939.86	1621.99
940.03	1615.85
940.19	1538.02
940.36	1654.76
940.53	1728.49
940.69	1646.57
940.86	1689.57
941.03	1621.99
941.19	1607.66
941.36	1669.09
941.52	1699.81
941.69	1621.99
941.86	1597.42
942.02	1687.53
942.19	1644.52
942.35	1673.19
942.52	1624.04
942.69	1669.09
942.85	1619.94
943.02	1677.29
943.18	1648.61
943.35	1744.87
943.52	1603.56
943.68	1566.70
943.85	1634.28
944.01	1609.70
944.18	1640.42
944.35	1677.29
944.51	1687.53
944.68	1515.50
944.84	1626.09
945.01	1642.47
945.17	1683.43
945.34	1703.91
945.51	1607.66
945.67	1650.66
945.84	1621.99
946.00	1593.32
946.17	1662.95
946.33	1560.55
946.50	1681.38
946.67	1578.98
946.83	1648.61
947.00	1730.53
947.16	1564.65
947.33	1648.61
947.49	1658.85
947.66	1538.02
947.82	1687.53
947.99	1609.70
948.16	1658.85
948.32	1644.52
948.49	1603.56
948.65	1693.67
948.82	1581.03
948.98	1605.61
949.15	1591.27
949.31	1642.47
949.48	1578.98
949.64	1589.22
949.81	1558.50
949.97	1556.46
950.14	1667.05
950.30	1591.27
950.47	1570.79
950.63	1617.90
950.80	1642.47
950.96	1642.47
951.13	1687.53
951.30	1662.95
951.46	1640.42
951.63	1671.14
951.79	1619.94
951.96	1716.20
952.12	1617.90
952.29	1681.38
952.45	1650.66
952.62	1646.57
952.78	1718.25
952.94	1634.28
953.11	1587.18
953.27	1556.46
953.44	1765.35
953.60	1644.52
953.77	1697.77
953.93	1597.42
954.10	1667.05
954.26	1650.66
954.43	1609.70
954.59	1601.51
954.76	1751.01
954.92	1632.23
955.09	1636.33
955.25	1587.18
955.42	1574.89
955.58	1691.62
955.75	1619.94
955.91	1568.74
956.07	1611.75
956.24	1660.90
956.40	1691.62
956.57	1714.15
956.73	1583.08
956.90	1634.28
957.06	1568.74
957.23	1615.85
957.39	1624.04
957.56	1564.65
957.72	1578.98
957.88	1521.64
958.05	1644.52
958.21	1765.35
958.38	1548.26
958.54	1593.32
958.71	1705.96
958.87	1589.22
959.03	1652.71
959.20	1662.95
959.36	1587.18
959.53	1630.18
959.69	1533.93
959.85	1671.14
960.02	1535.98
960.18	1691.62
960.35	1611.75
960.51	1720.29
960.68	1650.66
960.84	1722.34
961.00	1595.37
961.17	1624.04
961.33	1648.61
961.50	1552.36
961.66	1689.57
961.82	1615.85
961.99	1691.62
962.15	1601.51
962.31	1570.79
962.48	1677.29
962.64	1665.00
962.81	1591.27
962.97	1568.74
963.13	1660.90
963.30	1609.70
963.46	1605.61
963.62	1603.56
963.79	1605.61
963.95	1599.46
964.12	1646.57
964.28	1708.01
964.44	1593.32
964.61	1695.72
964.77	1578.98
964.93	1765.35
965.10	1585.13
965.26	1603.56
965.42	1587.18
965.59	1642.47
965.75	1583.08
965.92	1617.90
966.08	1662.95
966.24	1626.09
966.41	1587.18
966.57	1658.85
966.73	1605.61
966.90	1595.37
967.06	1597.42
967.22	1589.22
967.39	1562.60
967.55	1566.70
967.71	1595.37
967.88	1619.94
968.04	1619.94
968.20	1597.42
968.37	1607.66
968.53	1599.46
968.69	1642.47
968.85	1656.81
969.02	1607.66
969.18	1650.66
969.34	1644.52
969.51	1636.33
969.67	1738.73
969.83	1601.51
970.00	1755.11
970.16	1685.48
970.32	1619.94
970.48	1726.44
970.65	1667.05
970.81	1589.22
970.97	1624.04
971.14	1560.55
971.30	1777.64
971.46	1578.98
971.63	1583.08
971.79	1681.38
971.95	1603.56
972.11	1581.03
972.28	1619.94
972.44	1748.97
972.60	1564.65
972.76	1626.09
972.93	1693.67
973.09	1703.91
973.25	1613.80
973.42	1689.57
973.58	1615.85
973.74	1642.47
973.90	1699.81
974.07	1662.95
974.23	1673.19
974.39	1621.99
974.55	1662.95
974.72	1646.57
974.88	1593.32
975.04	1699.81
975.20	1568.74
975.37	1640.42
975.53	1583.08
975.69	1611.75
975.85	1568.74
976.01	1556.46
976.18	1640.42
976.34	1712.10
976.50	1728.49
976.66	1736.68
976.83	1544.17
976.99	1601.51
977.15	1589.22
977.31	1486.83
977.47	1669.09
977.64	1654.76
977.80	1630.18
977.96	1601.51
978.12	1640.42
978.29	1632.23
978.45	1576.94
978.61	1667.05
978.77	1738.73
978.93	1599.46
979.10	1656.81
979.26	1585.13
979.42	1646.57
979.58	1542.12
979.74	1601.51
979.91	1693.67
980.07	1542.12
980.23	1669.09
980.39	1601.51
980.55	1605.61
980.71	1611.75
980.88	1630.18
981.04	1581.03
981.20	1576.94
981.36	1660.90
981.52	1626.09
981.68	1621.99
981.85	1677.29
982.01	1658.85
982.17	1574.89
982.33	1650.66
982.49	1667.05
982.65	1626.09
982.82	1630.18
982.98	1593.32
983.14	1546.22
983.30	1656.81
983.46	1578.98
983.62	1689.57
983.79	1630.18
983.95	1597.42
984.11	1486.83
984.27	1589.22
984.43	1607.66
984.59	1632.23
984.75	1644.52
984.91	1630.18
985.08	1636.33
985.24	1570.79
985.40	1511.40
985.56	1634.28
985.72	1632.23
985.88	1642.47
986.04	1611.75
986.20	1634.28
986.37	1613.80
986.53	1566.70
986.69	1542.12
986.85	1599.46
987.01	1570.79
987.17	1587.18
987.33	1560.55
987.49	1556.46
987.65	1605.61
987.82	1593.32
987.98	1554.41
988.14	1566.70
988.30	1632.23
988.46	1603.56
988.62	1562.60
988.78	1644.52
988.94	1648.61
989.10	1638.38
989.26	1593.32
989.42	1658.85
989.59	1501.16
989.75	1642.47
989.91	1705.96
990.07	1556.46
990.23	1601.51
990.39	1615.85
990.55	1687.53
990.71	1538.02
990.87	1630.18
991.03	1759.21
991.19	1611.75
991.35	1675.24
991.51	1585.13
991.67	1648.61
991.83	1593.32
992.00	1634.28
992.16	1634.28
992.32	1648.61
992.48	1667.05
992.64	1576.94
992.80	1626.09
992.96	1568.74
993.12	1695.72
993.28	1583.08
993.44	1585.13
993.60	1601.51
993.76	1636.33
993.92	1679.33
994.08	1630.18
994.24	1615.85
994.40	1589.22
994.56	1624.04
994.72	1646.57
994.88	1603.56
995.04	1636.33
995.20	1593.32
995.36	1591.27
995.52	1693.67
995.68	1609.70
995.84	1583.08
996.00	1675.24
996.16	1660.90
996.32	1644.52
996.48	1613.80
996.64	1683.43
996.80	1585.13
996.96	1675.24
997.12	1619.94
997.28	1585.13
997.44	1654.76
997.60	1519.59
997.76	1556.46
997.92	1576.94
998.08	1603.56
998.24	1540.07
998.40	1617.90
998.56	1718.25
998.72	1544.17
998.88	1558.50
999.04	1609.70
999.20	1650.66
999.36	1607.66
999.52	1732.58
999.68	1601.51
999.84	1638.38
1000.00	1650.66
1000.16	1626.09
1000.32	1552.36
1000.48	1705.96
1000.64	1578.98
1000.80	1511.40
1000.95	1521.64
1001.11	1615.85
1001.27	1568.74
1001.43	1648.61
1001.59	1599.46
1001.75	1630.18
1001.91	1613.80
1002.07	1507.30
1002.23	1624.04
1002.39	1673.19
1002.55	1601.51
1002.71	1511.40
1002.87	1587.18
1003.03	1626.09
1003.19	1550.31
1003.34	1699.81
1003.50	1617.90
1003.66	1708.01
1003.82	1636.33
1003.98	1540.07
1004.14	1646.57
1004.30	1626.09
1004.46	1548.26
1004.62	1683.43
1004.78	1560.55
1004.94	1568.74
1005.09	1681.38
1005.25	1595.37
1005.41	1554.41
1005.57	1632.23
1005.73	1617.90
1005.89	1560.55
1006.05	1642.47
1006.21	1591.27
1006.37	1525.74
1006.52	1605.61
1006.68	1607.66
1006.84	1730.53
1007.00	1587.18
1007.16	1607.66
1007.32	1595.37
1007.48	1667.05
1007.64	1642.47
1007.79	1583.08
1007.95	1501.16
1008.11	1687.53
1008.27	1562.60
1008.43	1593.32
1008.59	1642.47
1008.75	1658.85
1008.91	1671.14
1009.06	1599.46
1009.22	1683.43
1009.38	1589.22
1009.54	1564.65
1009.70	1576.94
1009.86	1574.89
1010.01	1691.62
1010.17	1591.27
1010.33	1650.66
1010.49	1642.47
1010.65	1654.76
1010.81	1589.22
1010.96	1630.18
1011.12	1648.61
1011.28	1548.26
1011.44	1679.33
1011.60	1621.99
1011.76	1621.99
1011.91	1771.49
1012.07	1568.74
1012.23	1589.22
1012.39	1550.31
1012.55	1605.61
1012.71	1574.89
1012.86	1554.41
1013.02	1589.22
1013.18	1560.55
1013.34	1554.41
1013.50	1691.62
1013.65	1654.76
1013.81	1519.59
1013.97	1511.40
1014.13	1646.57
1014.29	1558.50
1014.44	1665.00
1014.60	1626.09
1014.76	1560.55
1014.92	1538.02
1015.07	1634.28
1015.23	1593.32
1015.39	1503.21
1015.55	1591.27
1015.71	1685.48
1015.86	1558.50
1016.02	1593.32
1016.18	1568.74
1016.34	1642.47
1016.49	1634.28
1016.65	1720.29
1016.81	1589.22
1016.97	1624.04
1017.12	1599.46
1017.28	1558.50
1017.44	1562.60
1017.60	1609.70
1017.75	1611.75
1017.91	1687.53
1018.07	1638.38
1018.23	1558.50
1018.38	1589.22
1018.54	1593.32
1018.70	1667.05
1018.86	1615.85
1019.01	1644.52
1019.17	1599.46
1019.33	1710.05
1019.49	1613.80
1019.64	1617.90
1019.80	1630.18
1019.96	1640.42
1020.12	1630.18
1020.27	1562.60
1020.43	1578.98
1020.59	1765.35
1020.74	1656.81
1020.90	1642.47
1021.06	1605.61
1021.22	1611.75
1021.37	1597.42
1021.53	1599.46
1021.69	1595.37
1021.84	1554.41
1022.00	1640.42
1022.16	1613.80
1022.31	1568.74
1022.47	1654.76
1022.63	1654.76
1022.79	1626.09
1022.94	1628.14
1023.10	1742.82
1023.26	1621.99
1023.41	1611.75
1023.57	1675.24
1023.73	1601.51
1023.88	1589.22
1024.04	1574.89
1024.20	1531.88
1024.35	1621.99
1024.51	1595.37
1024.67	1624.04
1024.82	1685.48
1024.98	1570.79
1025.14	1679.33
1025.29	1644.52
1025.45	1732.58
1025.61	1603.56
1025.76	1597.42
1025.92	1533.93
1026.08	1662.95
1026.23	1675.24
1026.39	1683.43
1026.55	1699.81
1026.70	1531.88
1026.86	1615.85
1027.02	1728.49
1027.17	1568.74
1027.33	1687.53
1027.48	1654.76
1027.64	1591.27
1027.80	1611.75
1027.95	1716.20
1028.11	1621.99
1028.27	1687.53
1028.42	1683.43
1028.58	1591.27
1028.73	1566.70
1028.89	1552.36
1029.05	1742.82
1029.20	1654.76
>>>>>End Processed Spectral Data<<<<<
