SpectraSuite Data File
++++++++++++++++++++++++++++++++++++
Date: Fri Jun 02 14:47:53 CEST 2017
User: INFO_000
Dark Spectrum Present: No
Reference Spectrum Present: No
Number of Sampled Component Spectra: 1
Spectrometers: USB4H00879
Integration Time (usec): 80000 (USB4H00879)
Spectra Averaged: 1 (USB4H00879)
Boxcar Smoothing: 0 (USB4H00879)
Correct for Electrical Dark: No (USB4H00879)
Strobe/Lamp Enabled: No (USB4H00879)
Correct for Detector Non-linearity: No (USB4H00879)
Correct for Stray Light: No (USB4H00879)
Number of Pixels in Processed Spectrum: 3648
>>>>>Begin Processed Spectral Data<<<<<
345.13	1255.40
345.34	1255.40
345.56	1255.40
345.78	1243.12
345.99	1298.41
346.21	1736.68
346.42	1689.57
346.64	1671.14
346.86	1720.29
347.07	1759.21
347.29	1691.62
347.50	1617.90
347.72	1585.13
347.94	1722.34
348.15	1652.71
348.37	1679.33
348.59	1691.62
348.80	1626.09
349.02	1783.78
349.23	1755.11
349.45	1726.44
349.67	1720.29
349.88	1654.76
350.10	1806.31
350.31	1748.97
350.53	1626.09
350.75	1830.88
350.96	1572.84
351.18	1716.20
351.39	1714.15
351.61	1699.81
351.82	1794.02
352.04	1855.46
352.26	1771.49
352.47	1818.60
352.69	1660.90
352.90	1605.61
353.12	1716.20
353.34	1687.53
353.55	1806.31
353.77	1673.19
353.98	1660.90
354.20	1658.85
354.41	1763.30
354.63	1724.39
354.85	1849.32
355.06	1787.88
355.28	1615.85
355.49	1716.20
355.71	1658.85
355.92	1581.03
356.14	1787.88
356.35	1710.05
356.57	1716.20
356.79	1777.64
357.00	1636.33
357.22	1787.88
357.43	1630.18
357.65	1849.32
357.86	1658.85
358.08	1671.14
358.29	1781.73
358.51	1757.16
358.72	1732.58
358.94	1804.26
359.16	1722.34
359.37	1708.01
359.59	1726.44
359.80	1722.34
360.02	1746.92
360.23	1722.34
360.45	1773.54
360.66	1751.01
360.88	1589.22
361.09	1697.77
361.31	1716.20
361.52	1601.51
361.74	1669.09
361.95	1789.92
362.17	1658.85
362.38	1824.74
362.60	1777.64
362.81	1607.66
363.03	1630.18
363.24	1736.68
363.46	1781.73
363.67	1841.12
363.89	1708.01
364.10	1660.90
364.32	1697.77
364.53	1791.97
364.75	1558.50
364.96	1751.01
365.18	1640.42
365.39	1677.29
365.61	1585.13
365.82	1837.03
366.04	1648.61
366.25	1650.66
366.47	1652.71
366.68	1667.05
366.90	1593.32
367.11	1787.88
367.33	1742.82
367.54	1746.92
367.76	1693.67
367.97	1787.88
368.19	1726.44
368.40	1714.15
368.62	1650.66
368.83	1615.85
369.05	1712.10
369.26	1679.33
369.48	1613.80
369.69	1642.47
369.91	1716.20
370.12	1566.70
370.33	1789.92
370.55	1626.09
370.76	1767.40
370.98	1724.39
371.19	1662.95
371.41	1648.61
371.62	1689.57
371.84	1697.77
372.05	1826.79
372.27	1705.96
372.48	1693.67
372.69	1703.91
372.91	1734.63
373.12	1763.30
373.34	1646.57
373.55	1712.10
373.77	1748.97
373.98	1665.00
374.20	1767.40
374.41	1830.88
374.62	1716.20
374.84	1714.15
375.05	1740.77
375.27	1724.39
375.48	1673.19
375.70	1714.15
375.91	1734.63
376.12	1769.44
376.34	1654.76
376.55	1691.62
376.77	1658.85
376.98	1687.53
377.19	1652.71
377.41	1656.81
377.62	1730.53
377.84	1732.58
378.05	1798.12
378.27	1662.95
378.48	1816.55
378.69	1843.17
378.91	1773.54
379.12	1689.57
379.34	1748.97
379.55	1798.12
379.76	1720.29
379.98	1658.85
380.19	1722.34
380.41	1728.49
380.62	1769.44
380.83	1722.34
381.05	1593.32
381.26	1822.69
381.47	1667.05
381.69	1656.81
381.90	1798.12
382.12	1703.91
382.33	1613.80
382.54	1650.66
382.76	1689.57
382.97	1714.15
383.19	1697.77
383.40	1765.35
383.61	1712.10
383.83	1634.28
384.04	1617.90
384.25	1677.29
384.47	1757.16
384.68	1689.57
384.89	1681.38
385.11	1638.38
385.32	1732.58
385.54	1675.24
385.75	1644.52
385.96	1679.33
386.18	1669.09
386.39	1658.85
386.60	1574.89
386.82	1705.96
387.03	1589.22
387.24	1705.96
387.46	1673.19
387.67	1732.58
387.88	1765.35
388.10	1673.19
388.31	1738.73
388.52	1720.29
388.74	1689.57
388.95	1683.43
389.16	1644.52
389.38	1691.62
389.59	1728.49
389.80	1775.59
390.02	1687.53
390.23	1761.25
390.44	1593.32
390.66	1689.57
390.87	1640.42
391.08	1656.81
391.30	1734.63
391.51	1724.39
391.72	1699.81
391.94	1716.20
392.15	1558.50
392.36	1714.15
392.58	1650.66
392.79	1740.77
393.00	1705.96
393.22	1779.68
393.43	1708.01
393.64	1751.01
393.85	1759.21
394.07	1705.96
394.28	1677.29
394.49	1679.33
394.71	1720.29
394.92	1691.62
395.13	1628.14
395.35	1656.81
395.56	1630.18
395.77	1630.18
395.98	1728.49
396.20	1658.85
396.41	1658.85
396.62	1767.40
396.84	1613.80
397.05	1662.95
397.26	1714.15
397.47	1783.78
397.69	1703.91
397.90	1859.56
398.11	1699.81
398.32	1679.33
398.54	1677.29
398.75	1677.29
398.96	1691.62
399.18	1777.64
399.39	1652.71
399.60	1730.53
399.81	1699.81
400.03	1640.42
400.24	1851.36
400.45	1738.73
400.66	1710.05
400.88	1609.70
401.09	1830.88
401.30	1662.95
401.51	1791.97
401.73	1724.39
401.94	1667.05
402.15	1699.81
402.36	1669.09
402.58	1849.32
402.79	1746.92
403.00	1697.77
403.21	1798.12
403.43	1808.36
403.64	1691.62
403.85	1716.20
404.06	1777.64
404.27	1656.81
404.49	1697.77
404.70	1660.90
404.91	1806.31
405.12	1728.49
405.34	1744.87
405.55	1810.40
405.76	1619.94
405.97	1681.38
406.19	1738.73
406.40	1644.52
406.61	1683.43
406.82	1609.70
407.03	1662.95
407.25	1679.33
407.46	1789.92
407.67	1761.25
407.88	1738.73
408.09	1777.64
408.31	1691.62
408.52	1671.14
408.73	1644.52
408.94	1597.42
409.15	1763.30
409.37	1730.53
409.58	1718.25
409.79	1708.01
410.00	1812.45
410.21	1654.76
410.43	1720.29
410.64	1644.52
410.85	1779.68
411.06	1722.34
411.27	1757.16
411.48	1794.02
411.70	1683.43
411.91	1753.06
412.12	1777.64
412.33	1665.00
412.54	1646.57
412.76	1732.58
412.97	1837.03
413.18	1660.90
413.39	1705.96
413.60	1718.25
413.81	1710.05
414.03	1708.01
414.24	1667.05
414.45	1877.99
414.66	1599.46
414.87	1693.67
415.08	1654.76
415.30	1697.77
415.51	1767.40
415.72	1687.53
415.93	1669.09
416.14	1679.33
416.35	1703.91
416.56	1681.38
416.78	1658.85
416.99	1701.86
417.20	1626.09
417.41	1734.63
417.62	1734.63
417.83	1714.15
418.04	1689.57
418.26	1753.06
418.47	1652.71
418.68	1740.77
418.89	1755.11
419.10	1890.28
419.31	1757.16
419.52	1708.01
419.73	1679.33
419.95	1705.96
420.16	1708.01
420.37	1671.14
420.58	1720.29
420.79	1581.03
421.00	1613.80
421.21	1646.57
421.42	1636.33
421.63	1683.43
421.85	1673.19
422.06	1708.01
422.27	1693.67
422.48	1677.29
422.69	1652.71
422.90	1603.56
423.11	1566.70
423.32	1708.01
423.53	1767.40
423.75	1732.58
423.96	1728.49
424.17	1775.59
424.38	1896.42
424.59	1697.77
424.80	1746.92
425.01	1673.19
425.22	1634.28
425.43	1781.73
425.64	1718.25
425.85	1826.79
426.06	1730.53
426.28	1648.61
426.49	1609.70
426.70	1617.90
426.91	1667.05
427.12	1746.92
427.33	1705.96
427.54	1667.05
427.75	1755.11
427.96	1765.35
428.17	1671.14
428.38	1662.95
428.59	1761.25
428.80	1703.91
429.01	1658.85
429.23	1691.62
429.44	1689.57
429.65	1689.57
429.86	1748.97
430.07	1621.99
430.28	1648.61
430.49	1646.57
430.70	1675.24
430.91	1834.98
431.12	1601.51
431.33	1689.57
431.54	1748.97
431.75	1642.47
431.96	1716.20
432.17	1730.53
432.38	1740.77
432.59	1728.49
432.80	1781.73
433.01	1669.09
433.22	1662.95
433.43	1710.05
433.64	1753.06
433.85	1765.35
434.06	1660.90
434.27	1601.51
434.49	1730.53
434.70	1712.10
434.91	1685.48
435.12	1689.57
435.33	1669.09
435.54	1685.48
435.75	1611.75
435.96	1722.34
436.17	1777.64
436.38	1818.60
436.59	1685.48
436.80	1576.94
437.01	1736.68
437.22	1730.53
437.43	1718.25
437.64	1626.09
437.85	1757.16
438.06	1734.63
438.27	1716.20
438.48	1572.84
438.69	1695.72
438.90	1650.66
439.11	1652.71
439.32	1724.39
439.53	1634.28
439.74	1679.33
439.95	1642.47
440.16	1695.72
440.37	1714.15
440.57	1603.56
440.78	1728.49
440.99	1683.43
441.20	1712.10
441.41	1621.99
441.62	1607.66
441.83	1665.00
442.04	1658.85
442.25	1642.47
442.46	1576.94
442.67	1642.47
442.88	1826.79
443.09	1587.18
443.30	1669.09
443.51	1652.71
443.72	1687.53
443.93	1613.80
444.14	1826.79
444.35	1744.87
444.56	1656.81
444.77	1640.42
444.98	1738.73
445.19	1695.72
445.40	1650.66
445.61	1662.95
445.81	1648.61
446.02	1773.54
446.23	1642.47
446.44	1634.28
446.65	1662.95
446.86	1787.88
447.07	1837.03
447.28	1667.05
447.49	1681.38
447.70	1720.29
447.91	1732.58
448.12	1667.05
448.33	1787.88
448.54	1708.01
448.74	1732.58
448.95	1640.42
449.16	1693.67
449.37	1748.97
449.58	1757.16
449.79	1757.16
450.00	1662.95
450.21	1728.49
450.42	1662.95
450.63	1701.86
450.84	1638.38
451.05	1693.67
451.25	1650.66
451.46	1675.24
451.67	1828.84
451.88	1687.53
452.09	1689.57
452.30	1667.05
452.51	1650.66
452.72	1775.59
452.93	1775.59
453.13	1634.28
453.34	1650.66
453.55	1699.81
453.76	1710.05
453.97	1626.09
454.18	1665.00
454.39	1796.07
454.60	1761.25
454.81	1720.29
455.01	1648.61
455.22	1587.18
455.43	1636.33
455.64	1679.33
455.85	1738.73
456.06	1744.87
456.27	1740.77
456.48	1644.52
456.68	1691.62
456.89	1753.06
457.10	1677.29
457.31	1689.57
457.52	1712.10
457.73	1705.96
457.94	1763.30
458.14	1665.00
458.35	1738.73
458.56	1691.62
458.77	1679.33
458.98	1656.81
459.19	1656.81
459.39	1724.39
459.60	1665.00
459.81	1669.09
460.02	1572.84
460.23	1699.81
460.44	1578.98
460.65	1712.10
460.85	1687.53
461.06	1699.81
461.27	1765.35
461.48	1652.71
461.69	1675.24
461.89	1495.02
462.10	1705.96
462.31	1656.81
462.52	1624.04
462.73	1642.47
462.94	1705.96
463.14	1695.72
463.35	1720.29
463.56	1720.29
463.77	1753.06
463.98	1644.52
464.18	1699.81
464.39	1708.01
464.60	1740.77
464.81	1607.66
465.02	1714.15
465.23	1722.34
465.43	1769.44
465.64	1683.43
465.85	1587.18
466.06	1736.68
466.27	1679.33
466.47	1675.24
466.68	1814.50
466.89	1554.41
467.10	1548.26
467.30	1587.18
467.51	1726.44
467.72	1687.53
467.93	1558.50
468.14	1630.18
468.34	1617.90
468.55	1718.25
468.76	1779.68
468.97	1697.77
469.17	1761.25
469.38	1806.31
469.59	1744.87
469.80	1636.33
470.01	1658.85
470.21	1708.01
470.42	1753.06
470.63	1722.34
470.84	1777.64
471.04	1697.77
471.25	1818.60
471.46	1720.29
471.67	1798.12
471.87	1632.23
472.08	1699.81
472.29	1634.28
472.50	1753.06
472.70	1683.43
472.91	1601.51
473.12	1550.31
473.33	1615.85
473.53	1705.96
473.74	1609.70
473.95	1708.01
474.16	1656.81
474.36	1654.76
474.57	1755.11
474.78	1621.99
474.99	1798.12
475.19	1654.76
475.40	1691.62
475.61	1779.68
475.81	1619.94
476.02	1671.14
476.23	1730.53
476.44	1570.79
476.64	1636.33
476.85	1724.39
477.06	1693.67
477.27	1621.99
477.47	1716.20
477.68	1728.49
477.89	1769.44
478.09	1718.25
478.30	1699.81
478.51	1652.71
478.71	1665.00
478.92	1779.68
479.13	1732.58
479.34	1556.46
479.54	1722.34
479.75	1712.10
479.96	1677.29
480.16	1621.99
480.37	1726.44
480.58	1740.77
480.78	1828.84
480.99	1640.42
481.20	1650.66
481.41	1738.73
481.61	1718.25
481.82	1814.50
482.03	1654.76
482.23	1689.57
482.44	1683.43
482.65	1863.65
482.85	1703.91
483.06	1640.42
483.27	1640.42
483.47	1691.62
483.68	1665.00
483.89	1687.53
484.09	1662.95
484.30	1681.38
484.51	1720.29
484.71	1638.38
484.92	1615.85
485.13	1759.21
485.33	1691.62
485.54	1675.24
485.75	1718.25
485.95	1748.97
486.16	1660.90
486.37	1679.33
486.57	1679.33
486.78	1644.52
486.98	1718.25
487.19	1630.18
487.40	1673.19
487.60	1689.57
487.81	1751.01
488.02	1654.76
488.22	1722.34
488.43	1796.07
488.64	1693.67
488.84	1599.46
489.05	1712.10
489.25	1699.81
489.46	1701.86
489.67	1660.90
489.87	1763.30
490.08	1783.78
490.29	1638.38
490.49	1843.17
490.70	1769.44
490.90	1726.44
491.11	1642.47
491.32	1771.49
491.52	1624.04
491.73	1773.54
491.94	1628.14
492.14	1591.27
492.35	1634.28
492.55	1748.97
492.76	1640.42
492.97	1673.19
493.17	1671.14
493.38	1789.92
493.58	1787.88
493.79	1695.72
494.00	1671.14
494.20	1656.81
494.41	1693.67
494.61	1775.59
494.82	1638.38
495.02	1568.74
495.23	1794.02
495.44	1718.25
495.64	1771.49
495.85	1691.62
496.05	1765.35
496.26	1693.67
496.47	1667.05
496.67	1693.67
496.88	1783.78
497.08	1654.76
497.29	1611.75
497.49	1693.67
497.70	1798.12
497.91	1710.05
498.11	1873.89
498.32	1708.01
498.52	1765.35
498.73	1753.06
498.93	1695.72
499.14	1830.88
499.34	1785.83
499.55	1689.57
499.76	1673.19
499.96	1732.58
500.17	1759.21
500.37	1724.39
500.58	1687.53
500.78	1681.38
500.99	1628.14
501.19	1611.75
501.40	1818.60
501.60	1597.42
501.81	1646.57
502.02	1720.29
502.22	1701.86
502.43	1691.62
502.63	1820.64
502.84	1765.35
503.04	1718.25
503.25	1740.77
503.45	1689.57
503.66	1593.32
503.86	1787.88
504.07	1685.48
504.27	1556.46
504.48	1759.21
504.68	1683.43
504.89	1824.74
505.09	1593.32
505.30	1675.24
505.50	1708.01
505.71	1667.05
505.91	1759.21
506.12	1701.86
506.32	1671.14
506.53	1685.48
506.73	1665.00
506.94	1728.49
507.14	1642.47
507.35	1763.30
507.55	1685.48
507.76	1658.85
507.96	1667.05
508.17	1771.49
508.37	1642.47
508.58	1796.07
508.78	1716.20
508.99	1814.50
509.19	1761.25
509.40	1687.53
509.60	1691.62
509.81	1822.69
510.01	1679.33
510.22	1718.25
510.42	1744.87
510.63	1708.01
510.83	1681.38
511.04	1636.33
511.24	1730.53
511.44	1722.34
511.65	1689.57
511.85	1714.15
512.06	1716.20
512.26	1642.47
512.47	1763.30
512.67	1710.05
512.88	1748.97
513.08	1591.27
513.29	1675.24
513.49	1708.01
513.69	1646.57
513.90	1615.85
514.10	1751.01
514.31	1736.68
514.51	1708.01
514.72	1652.71
514.92	1708.01
515.13	1746.92
515.33	1693.67
515.53	1687.53
515.74	1732.58
515.94	1685.48
516.15	1703.91
516.35	1544.17
516.56	1613.80
516.76	1593.32
516.96	1652.71
517.17	1687.53
517.37	1757.16
517.58	1538.02
517.78	1646.57
517.99	1640.42
518.19	1804.26
518.39	1683.43
518.60	1728.49
518.80	1662.95
519.01	1718.25
519.21	1658.85
519.41	1667.05
519.62	1511.40
519.82	1697.77
520.03	1636.33
520.23	1619.94
520.43	1636.33
520.64	1730.53
520.84	1763.30
521.05	1681.38
521.25	1683.43
521.45	1718.25
521.66	1628.14
521.86	1728.49
522.07	1699.81
522.27	1687.53
522.47	1607.66
522.68	1634.28
522.88	1738.73
523.08	1724.39
523.29	1677.29
523.49	1679.33
523.70	1716.20
523.90	1648.61
524.10	1716.20
524.31	1675.24
524.51	1531.88
524.71	1744.87
524.92	1773.54
525.12	1607.66
525.33	1687.53
525.53	1726.44
525.73	1798.12
525.94	1724.39
526.14	1654.76
526.34	1617.90
526.55	1662.95
526.75	1689.57
526.95	1787.88
527.16	1615.85
527.36	1667.05
527.56	1705.96
527.77	1621.99
527.97	1642.47
528.17	1712.10
528.38	1632.23
528.58	1675.24
528.78	1736.68
528.99	1681.38
529.19	1697.77
529.39	1611.75
529.60	1624.04
529.80	1691.62
530.00	1632.23
530.21	1787.88
530.41	1654.76
530.61	1763.30
530.82	1728.49
531.02	1738.73
531.22	1710.05
531.43	1740.77
531.63	1718.25
531.83	1775.59
532.04	1759.21
532.24	1609.70
532.44	1562.60
532.64	1726.44
532.85	1576.94
533.05	1656.81
533.25	1624.04
533.46	1697.77
533.66	1753.06
533.86	1615.85
534.07	1714.15
534.27	1601.51
534.47	1697.77
534.67	1740.77
534.88	1597.42
535.08	1761.25
535.28	1767.40
535.49	1744.87
535.69	1794.02
535.89	1720.29
536.09	1796.07
536.30	1765.35
536.50	1656.81
536.70	1728.49
536.91	1675.24
537.11	1757.16
537.31	1697.77
537.51	1650.66
537.72	1613.80
537.92	1755.11
538.12	1732.58
538.32	1718.25
538.53	1650.66
538.73	1669.09
538.93	1685.48
539.13	1708.01
539.34	1716.20
539.54	1540.07
539.74	1755.11
539.94	1744.87
540.15	1738.73
540.35	1722.34
540.55	1683.43
540.75	1644.52
540.96	1665.00
541.16	1681.38
541.36	1728.49
541.56	1658.85
541.77	1746.92
541.97	1783.78
542.17	1716.20
542.37	1796.07
542.58	1701.86
542.78	1773.54
542.98	1728.49
543.18	1710.05
543.38	1681.38
543.59	1753.06
543.79	1615.85
543.99	1615.85
544.19	1648.61
544.40	1662.95
544.60	1726.44
544.80	1759.21
545.00	1732.58
545.20	1841.12
545.41	1662.95
545.61	1576.94
545.81	1703.91
546.01	1699.81
546.21	1769.44
546.42	1677.29
546.62	1816.55
546.82	1656.81
547.02	1658.85
547.22	1705.96
547.43	1781.73
547.63	1744.87
547.83	1775.59
548.03	1695.72
548.23	1753.06
548.44	1665.00
548.64	1632.23
548.84	1703.91
549.04	1634.28
549.24	1761.25
549.45	1828.84
549.65	1669.09
549.85	1728.49
550.05	1656.81
550.25	1513.45
550.45	1822.69
550.66	1699.81
550.86	1662.95
551.06	1691.62
551.26	1691.62
551.46	1722.34
551.66	1755.11
551.87	1703.91
552.07	1705.96
552.27	1642.47
552.47	1695.72
552.67	1677.29
552.87	1695.72
553.07	1691.62
553.28	1734.63
553.48	1677.29
553.68	1638.38
553.88	1763.30
554.08	1665.00
554.28	1624.04
554.48	1626.09
554.69	1679.33
554.89	1675.24
555.09	1583.08
555.29	1630.18
555.49	1716.20
555.69	1675.24
555.89	1751.01
556.10	1714.15
556.30	1613.80
556.50	1701.86
556.70	1720.29
556.90	1710.05
557.10	1703.91
557.30	1712.10
557.50	1607.66
557.70	1646.57
557.91	1720.29
558.11	1699.81
558.31	1755.11
558.51	1757.16
558.71	1710.05
558.91	1665.00
559.11	1646.57
559.31	1619.94
559.51	1691.62
559.72	1738.73
559.92	1656.81
560.12	1593.32
560.32	1734.63
560.52	1712.10
560.72	1679.33
560.92	1808.36
561.12	1720.29
561.32	1671.14
561.52	1679.33
561.72	1937.38
561.93	1734.63
562.13	1673.19
562.33	1705.96
562.53	1708.01
562.73	1591.27
562.93	1617.90
563.13	1798.12
563.33	1687.53
563.53	1660.90
563.73	1705.96
563.93	1746.92
564.13	1748.97
564.33	1679.33
564.53	1634.28
564.74	1675.24
564.94	1656.81
565.14	1642.47
565.34	1712.10
565.54	1650.66
565.74	1613.80
565.94	1675.24
566.14	1736.68
566.34	1703.91
566.54	1746.92
566.74	1697.77
566.94	1669.09
567.14	1705.96
567.34	1730.53
567.54	1679.33
567.74	1718.25
567.94	1787.88
568.14	1662.95
568.34	1826.79
568.54	1689.57
568.74	1699.81
568.94	1738.73
569.14	1812.45
569.34	1728.49
569.54	1581.03
569.75	1630.18
569.95	1736.68
570.15	1761.25
570.35	1642.47
570.55	1615.85
570.75	1621.99
570.95	1652.71
571.15	1781.73
571.35	1607.66
571.55	1724.39
571.75	1765.35
571.95	1748.97
572.15	1755.11
572.35	1638.38
572.55	1632.23
572.75	1654.76
572.95	1613.80
573.15	1775.59
573.35	1736.68
573.55	1734.63
573.75	1646.57
573.95	1814.50
574.15	1705.96
574.35	1630.18
574.55	1683.43
574.75	1671.14
574.95	1712.10
575.15	1593.32
575.34	1640.42
575.54	1646.57
575.74	1626.09
575.94	1685.48
576.14	1626.09
576.34	1748.97
576.54	1615.85
576.74	1781.73
576.94	1658.85
577.14	1691.62
577.34	1789.92
577.54	1662.95
577.74	1595.37
577.94	1613.80
578.14	1658.85
578.34	1722.34
578.54	1615.85
578.74	1675.24
578.94	1703.91
579.14	1742.82
579.34	1525.74
579.54	1615.85
579.74	1665.00
579.94	1691.62
580.13	1716.20
580.33	1673.19
580.53	1626.09
580.73	1716.20
580.93	1802.21
581.13	1656.81
581.33	1644.52
581.53	1699.81
581.73	1720.29
581.93	1642.47
582.13	1722.34
582.33	1667.05
582.53	1683.43
582.73	1744.87
582.92	1650.66
583.12	1710.05
583.32	1613.80
583.52	1665.00
583.72	1789.92
583.92	1695.72
584.12	1652.71
584.32	1716.20
584.52	1638.38
584.72	1650.66
584.92	1681.38
585.11	1724.39
585.31	1730.53
585.51	1593.32
585.71	1730.53
585.91	1808.36
586.11	1753.06
586.31	1804.26
586.51	1673.19
586.71	1708.01
586.91	1648.61
587.10	1744.87
587.30	1773.54
587.50	1740.77
587.70	1613.80
587.90	1708.01
588.10	1603.56
588.30	1640.42
588.50	1761.25
588.69	1662.95
588.89	1714.15
589.09	1689.57
589.29	1630.18
589.49	1660.90
589.69	1531.88
589.89	1665.00
590.08	1677.29
590.28	1601.51
590.48	1712.10
590.68	1712.10
590.88	1701.86
591.08	1738.73
591.28	1693.67
591.47	1703.91
591.67	1626.09
591.87	1724.39
592.07	1810.40
592.27	1597.42
592.47	1667.05
592.67	1748.97
592.86	1646.57
593.06	1703.91
593.26	1763.30
593.46	1716.20
593.66	1597.42
593.86	1775.59
594.05	1691.62
594.25	1697.77
594.45	1699.81
594.65	1794.02
594.85	1736.68
595.05	1714.15
595.24	1634.28
595.44	1652.71
595.64	1644.52
595.84	1748.97
596.04	1667.05
596.23	1703.91
596.43	1714.15
596.63	1763.30
596.83	1695.72
597.03	1738.73
597.22	1646.57
597.42	1761.25
597.62	1830.88
597.82	1718.25
598.02	1732.58
598.21	1673.19
598.41	1708.01
598.61	1654.76
598.81	1607.66
599.01	1710.05
599.20	1660.90
599.40	1667.05
599.60	1695.72
599.80	1677.29
600.00	1789.92
600.19	1763.30
600.39	1648.61
600.59	1755.11
600.79	1748.97
600.98	1798.12
601.18	1701.86
601.38	1787.88
601.58	1667.05
601.78	1783.78
601.97	1773.54
602.17	1736.68
602.37	1576.94
602.57	1722.34
602.76	1697.77
602.96	1669.09
603.16	1603.56
603.36	1665.00
603.55	1738.73
603.75	1671.14
603.95	1658.85
604.15	1662.95
604.34	1652.71
604.54	1689.57
604.74	1716.20
604.94	1755.11
605.13	1634.28
605.33	1650.66
605.53	1632.23
605.73	1746.92
605.92	1712.10
606.12	1722.34
606.32	1736.68
606.52	1802.21
606.71	1744.87
606.91	1640.42
607.11	1652.71
607.30	1660.90
607.50	1656.81
607.70	1810.40
607.90	1697.77
608.09	1699.81
608.29	1753.06
608.49	1789.92
608.68	1669.09
608.88	1720.29
609.08	1587.18
609.28	1656.81
609.47	1679.33
609.67	1714.15
609.87	1699.81
610.06	1746.92
610.26	1636.33
610.46	1798.12
610.66	1652.71
610.85	1650.66
611.05	1732.58
611.25	1703.91
611.44	1642.47
611.64	1699.81
611.84	1701.86
612.03	1673.19
612.23	1722.34
612.43	1708.01
612.62	1771.49
612.82	1781.73
613.02	1730.53
613.21	1708.01
613.41	1853.41
613.61	1634.28
613.80	1585.13
614.00	1621.99
614.20	1773.54
614.39	1746.92
614.59	1699.81
614.79	1734.63
614.98	1716.20
615.18	1689.57
615.38	1658.85
615.57	1656.81
615.77	1806.31
615.97	1652.71
616.16	1687.53
616.36	1695.72
616.56	1697.77
616.75	1660.90
616.95	1595.37
617.15	1826.79
617.34	1576.94
617.54	1761.25
617.74	1794.02
617.93	1853.41
618.13	1617.90
618.32	1640.42
618.52	1691.62
618.72	1576.94
618.91	1705.96
619.11	1695.72
619.31	1658.85
619.50	1621.99
619.70	1601.51
619.90	1751.01
620.09	1722.34
620.29	1734.63
620.48	1767.40
620.68	1759.21
620.88	1705.96
621.07	1751.01
621.27	1742.82
621.46	1775.59
621.66	1718.25
621.86	1658.85
622.05	1683.43
622.25	1806.31
622.44	1712.10
622.64	1689.57
622.84	1665.00
623.03	1673.19
623.23	1703.91
623.42	1748.97
623.62	1742.82
623.82	1724.39
624.01	1652.71
624.21	1722.34
624.40	1794.02
624.60	1675.24
624.80	1730.53
624.99	1667.05
625.19	1734.63
625.38	1744.87
625.58	1654.76
625.77	1710.05
625.97	1800.16
626.17	1660.90
626.36	1624.04
626.56	1732.58
626.75	1644.52
626.95	1656.81
627.14	1667.05
627.34	1665.00
627.54	1773.54
627.73	1814.50
627.93	1753.06
628.12	1757.16
628.32	1705.96
628.51	1667.05
628.71	1802.21
628.90	1703.91
629.10	1730.53
629.30	1728.49
629.49	1671.14
629.69	1695.72
629.88	1630.18
630.08	1908.71
630.27	1818.60
630.47	1744.87
630.66	1650.66
630.86	1708.01
631.05	1658.85
631.25	1662.95
631.44	1775.59
631.64	1626.09
631.84	1570.79
632.03	1708.01
632.23	1673.19
632.42	1703.91
632.62	1693.67
632.81	1695.72
633.01	1665.00
633.20	1748.97
633.40	1806.31
633.59	1755.11
633.79	1648.61
633.98	1691.62
634.18	1791.97
634.37	1763.30
634.57	1720.29
634.76	1593.32
634.96	1730.53
635.15	1875.94
635.35	1693.67
635.54	1691.62
635.74	1630.18
635.93	1593.32
636.13	1646.57
636.32	1755.11
636.52	1759.21
636.71	1658.85
636.91	1759.21
637.10	1824.74
637.30	1703.91
637.49	1691.62
637.69	1720.29
637.88	1763.30
638.08	1642.47
638.27	1665.00
638.46	1744.87
638.66	1648.61
638.85	1687.53
639.05	1695.72
639.24	1732.58
639.44	1693.67
639.63	1765.35
639.83	1771.49
640.02	1683.43
640.22	1685.48
640.41	1634.28
640.61	1736.68
640.80	1712.10
640.99	1642.47
641.19	1814.50
641.38	1759.21
641.58	1644.52
641.77	1650.66
641.97	1593.32
642.16	1691.62
642.36	1757.16
642.55	1740.77
642.74	1681.38
642.94	1705.96
643.13	1677.29
643.33	1722.34
643.52	1705.96
643.72	1728.49
643.91	1687.53
644.10	1773.54
644.30	1669.09
644.49	1773.54
644.69	1667.05
644.88	1691.62
645.08	1716.20
645.27	1718.25
645.46	1642.47
645.66	1771.49
645.85	1730.53
646.05	1722.34
646.24	1650.66
646.43	1675.24
646.63	1720.29
646.82	1632.23
647.02	1691.62
647.21	1777.64
647.40	1626.09
647.60	1632.23
647.79	1773.54
647.99	1675.24
648.18	1701.86
648.37	1746.92
648.57	1710.05
648.76	1685.48
648.96	1703.91
649.15	1646.57
649.34	1785.83
649.54	1716.20
649.73	1691.62
649.92	1740.77
650.12	1771.49
650.31	1691.62
650.51	1949.67
650.70	1742.82
650.89	1691.62
651.09	1732.58
651.28	1699.81
651.47	1630.18
651.67	1708.01
651.86	1818.60
652.06	1652.71
652.25	1806.31
652.44	1619.94
652.64	1705.96
652.83	1738.73
653.02	1718.25
653.22	1744.87
653.41	1572.84
653.60	1597.42
653.80	1667.05
653.99	1734.63
654.18	1654.76
654.38	1648.61
654.57	1695.72
654.76	1718.25
654.96	1759.21
655.15	1628.14
655.34	1681.38
655.54	1617.90
655.73	1634.28
655.92	1630.18
656.12	1626.09
656.31	1824.74
656.50	1767.40
656.70	1671.14
656.89	1626.09
657.08	1611.75
657.28	1675.24
657.47	1646.57
657.66	1615.85
657.86	1673.19
658.05	1742.82
658.24	1671.14
658.43	1716.20
658.63	1634.28
658.82	1675.24
659.01	1775.59
659.21	1761.25
659.40	1695.72
659.59	1787.88
659.79	1656.81
659.98	1734.63
660.17	1744.87
660.36	1736.68
660.56	1718.25
660.75	1748.97
660.94	1689.57
661.14	1689.57
661.33	1632.23
661.52	1695.72
661.71	1740.77
661.91	1615.85
662.10	1771.49
662.29	1634.28
662.49	1677.29
662.68	1634.28
662.87	1654.76
663.06	1791.97
663.26	1708.01
663.45	1814.50
663.64	1691.62
663.83	1718.25
664.03	1705.96
664.22	1712.10
664.41	1830.88
664.60	1789.92
664.80	1585.13
664.99	1734.63
665.18	1744.87
665.37	1658.85
665.57	1716.20
665.76	1746.92
665.95	1746.92
666.14	1646.57
666.34	1697.77
666.53	1738.73
666.72	1671.14
666.91	1644.52
667.11	1656.81
667.30	1796.07
667.49	1705.96
667.68	1845.22
667.87	1705.96
668.07	1767.40
668.26	1654.76
668.45	1601.51
668.64	1650.66
668.84	1689.57
669.03	1654.76
669.22	1763.30
669.41	1665.00
669.60	1642.47
669.80	1773.54
669.99	1728.49
670.18	1712.10
670.37	1818.60
670.57	1732.58
670.76	1732.58
670.95	1841.12
671.14	1667.05
671.33	1718.25
671.53	1699.81
671.72	1798.12
671.91	1765.35
672.10	1673.19
672.29	1728.49
672.48	1736.68
672.68	1660.90
672.87	1701.86
673.06	1652.71
673.25	1677.29
673.44	1675.24
673.64	1597.42
673.83	1699.81
674.02	1677.29
674.21	1748.97
674.40	1642.47
674.59	1667.05
674.79	1716.20
674.98	1751.01
675.17	1769.44
675.36	1609.70
675.55	1585.13
675.74	1662.95
675.94	1791.97
676.13	1714.15
676.32	1751.01
676.51	1699.81
676.70	1613.80
676.89	1691.62
677.08	1675.24
677.28	1834.98
677.47	1673.19
677.66	1705.96
677.85	1693.67
678.04	1718.25
678.23	1742.82
678.42	1671.14
678.62	1609.70
678.81	1710.05
679.00	1662.95
679.19	1738.73
679.38	1689.57
679.57	1691.62
679.76	1613.80
679.96	1638.38
680.15	1718.25
680.34	1716.20
680.53	1703.91
680.72	1742.82
680.91	1650.66
681.10	1693.67
681.29	1693.67
681.48	1773.54
681.68	1691.62
681.87	1802.21
682.06	1751.01
682.25	1804.26
682.44	1642.47
682.63	1744.87
682.82	1640.42
683.01	1794.02
683.20	1560.55
683.39	1802.21
683.59	1691.62
683.78	1673.19
683.97	1603.56
684.16	1617.90
684.35	1572.84
684.54	1753.06
684.73	1626.09
684.92	1568.74
685.11	1710.05
685.30	1687.53
685.49	1689.57
685.69	1771.49
685.88	1652.71
686.07	1609.70
686.26	1630.18
686.45	1720.29
686.64	1804.26
686.83	1640.42
687.02	1712.10
687.21	1791.97
687.40	1656.81
687.59	1757.16
687.78	1679.33
687.97	1800.16
688.16	1712.10
688.35	1671.14
688.54	1675.24
688.74	1550.31
688.93	1777.64
689.12	1679.33
689.31	1820.64
689.50	1785.83
689.69	1613.80
689.88	1671.14
690.07	1738.73
690.26	1658.85
690.45	1638.38
690.64	1683.43
690.83	1615.85
691.02	1679.33
691.21	1746.92
691.40	1628.14
691.59	1738.73
691.78	1755.11
691.97	1689.57
692.16	1665.00
692.35	1681.38
692.54	1722.34
692.73	1679.33
692.92	1730.53
693.11	1705.96
693.30	1771.49
693.49	1675.24
693.68	1755.11
693.87	1605.61
694.06	1671.14
694.25	1615.85
694.44	1648.61
694.63	1640.42
694.82	1648.61
695.01	1718.25
695.20	1683.43
695.39	1683.43
695.58	1787.88
695.77	1568.74
695.96	1648.61
696.15	1691.62
696.34	1646.57
696.53	1667.05
696.72	1677.29
696.91	1626.09
697.10	1785.83
697.29	1669.09
697.48	1794.02
697.67	1716.20
697.86	1597.42
698.05	1673.19
698.24	1687.53
698.43	1726.44
698.62	1722.34
698.81	1640.42
699.00	1687.53
699.19	1777.64
699.38	1675.24
699.57	1667.05
699.76	1728.49
699.95	1624.04
700.14	1621.99
700.32	1732.58
700.51	1671.14
700.70	1714.15
700.89	1701.86
701.08	1705.96
701.27	1560.55
701.46	1800.16
701.65	1626.09
701.84	1671.14
702.03	1560.55
702.22	1724.39
702.41	1675.24
702.60	1673.19
702.79	1789.92
702.98	1656.81
703.17	1798.12
703.35	1753.06
703.54	1716.20
703.73	1648.61
703.92	1679.33
704.11	1617.90
704.30	1746.92
704.49	1757.16
704.68	1632.23
704.87	1718.25
705.06	1726.44
705.25	1658.85
705.43	1646.57
705.62	1683.43
705.81	1791.97
706.00	1613.80
706.19	1779.68
706.38	1624.04
706.57	1777.64
706.76	1662.95
706.95	1617.90
707.14	1785.83
707.32	1712.10
707.51	1607.66
707.70	1658.85
707.89	1681.38
708.08	1687.53
708.27	1646.57
708.46	1718.25
708.65	1681.38
708.84	1722.34
709.02	1648.61
709.21	1626.09
709.40	1746.92
709.59	1751.01
709.78	1624.04
709.97	1683.43
710.16	1783.78
710.34	1650.66
710.53	1734.63
710.72	1634.28
710.91	1681.38
711.10	1640.42
711.29	1628.14
711.48	1689.57
711.66	1679.33
711.85	1687.53
712.04	1738.73
712.23	1683.43
712.42	1824.74
712.61	1761.25
712.80	1669.09
712.98	1671.14
713.17	1634.28
713.36	1658.85
713.55	1726.44
713.74	1718.25
713.93	1779.68
714.11	1644.52
714.30	1597.42
714.49	1720.29
714.68	1634.28
714.87	1601.51
715.06	1763.30
715.24	1724.39
715.43	1662.95
715.62	1644.52
715.81	1687.53
716.00	1742.82
716.18	1773.54
716.37	1681.38
716.56	1583.08
716.75	1708.01
716.94	1621.99
717.12	1710.05
717.31	1638.38
717.50	1667.05
717.69	1597.42
717.88	1699.81
718.06	1642.47
718.25	1757.16
718.44	1697.77
718.63	1775.59
718.82	1587.18
719.00	1636.33
719.19	1796.07
719.38	1703.91
719.57	1734.63
719.76	1669.09
719.94	1665.00
720.13	1683.43
720.32	1785.83
720.51	1632.23
720.69	1665.00
720.88	1691.62
721.07	1609.70
721.26	1763.30
721.44	1732.58
721.63	1697.77
721.82	1669.09
722.01	1726.44
722.20	1687.53
722.38	1708.01
722.57	1515.50
722.76	1722.34
722.95	1605.61
723.13	1748.97
723.32	1701.86
723.51	1685.48
723.70	1755.11
723.88	1683.43
724.07	1593.32
724.26	1726.44
724.44	1693.67
724.63	1822.69
724.82	1685.48
725.01	1695.72
725.19	1667.05
725.38	1708.01
725.57	1695.72
725.76	1820.64
725.94	1632.23
726.13	1640.42
726.32	1695.72
726.51	1654.76
726.69	1583.08
726.88	1642.47
727.07	1761.25
727.25	1658.85
727.44	1685.48
727.63	1708.01
727.82	1650.66
728.00	1658.85
728.19	1748.97
728.38	1621.99
728.56	1605.61
728.75	1781.73
728.94	1744.87
729.12	1656.81
729.31	1763.30
729.50	1732.58
729.69	1695.72
729.87	1689.57
730.06	1597.42
730.25	1708.01
730.43	1708.01
730.62	1613.80
730.81	1640.42
730.99	1691.62
731.18	1646.57
731.37	1675.24
731.55	1708.01
731.74	1757.16
731.93	1722.34
732.11	1630.18
732.30	1738.73
732.49	1642.47
732.67	1624.04
732.86	1630.18
733.05	1648.61
733.23	1693.67
733.42	1667.05
733.61	1701.86
733.79	1722.34
733.98	1761.25
734.17	1574.89
734.35	1773.54
734.54	1771.49
734.73	1740.77
734.91	1652.71
735.10	1652.71
735.29	1689.57
735.47	1630.18
735.66	1646.57
735.84	1765.35
736.03	1638.38
736.22	1804.26
736.40	1703.91
736.59	1529.83
736.78	1669.09
736.96	1722.34
737.15	1742.82
737.33	1751.01
737.52	1615.85
737.71	1701.86
737.89	1611.75
738.08	1699.81
738.27	1738.73
738.45	1691.62
738.64	1669.09
738.82	1656.81
739.01	1681.38
739.20	1777.64
739.38	1724.39
739.57	1691.62
739.75	1660.90
739.94	1681.38
740.13	1619.94
740.31	1691.62
740.50	1650.66
740.68	1683.43
740.87	1630.18
741.06	1779.68
741.24	1820.64
741.43	1726.44
741.61	1609.70
741.80	1705.96
741.99	1671.14
742.17	1683.43
742.36	1568.74
742.54	1724.39
742.73	1736.68
742.91	1652.71
743.10	1658.85
743.29	1691.62
743.47	1634.28
743.66	1609.70
743.84	1644.52
744.03	1683.43
744.21	1626.09
744.40	1638.38
744.59	1632.23
744.77	1589.22
744.96	1742.82
745.14	1650.66
745.33	1695.72
745.51	1691.62
745.70	1642.47
745.88	1701.86
746.07	1701.86
746.26	1656.81
746.44	1613.80
746.63	1548.26
746.81	1628.14
747.00	1658.85
747.18	1642.47
747.37	1542.12
747.55	1718.25
747.74	1863.65
747.92	1591.27
748.11	1726.44
748.29	1697.77
748.48	1777.64
748.66	1611.75
748.85	1632.23
749.03	1675.24
749.22	1701.86
749.41	1585.13
749.59	1671.14
749.78	1644.52
749.96	1605.61
750.15	1595.37
750.33	1765.35
750.52	1671.14
750.70	1662.95
750.89	1716.20
751.07	1646.57
751.26	1683.43
751.44	1581.03
751.63	1615.85
751.81	1570.79
752.00	1628.14
752.18	1642.47
752.37	1773.54
752.55	1624.04
752.74	1591.27
752.92	1677.29
753.10	1599.46
753.29	1640.42
753.47	1712.10
753.66	1581.03
753.84	1687.53
754.03	1576.94
754.21	1667.05
754.40	1671.14
754.58	1802.21
754.77	1646.57
754.95	1785.83
755.14	1654.76
755.32	1628.14
755.51	1566.70
755.69	1642.47
755.88	1634.28
756.06	1730.53
756.24	1640.42
756.43	1699.81
756.61	1662.95
756.80	1548.26
756.98	1658.85
757.17	1703.91
757.35	1650.66
757.54	1716.20
757.72	1650.66
757.90	1628.14
758.09	1673.19
758.27	1671.14
758.46	1609.70
758.64	1748.97
758.83	1689.57
759.01	1722.34
759.19	1732.58
759.38	1630.18
759.56	1677.29
759.75	1648.61
759.93	1738.73
760.12	1624.04
760.30	1667.05
760.48	1675.24
760.67	1699.81
760.85	1632.23
761.04	1644.52
761.22	1636.33
761.40	1576.94
761.59	1632.23
761.77	1646.57
761.96	1576.94
762.14	1691.62
762.32	1638.38
762.51	1673.19
762.69	1552.36
762.88	1626.09
763.06	1566.70
763.24	1613.80
763.43	1501.16
763.61	1681.38
763.80	1693.67
763.98	1738.73
764.16	1632.23
764.35	1656.81
764.53	1634.28
764.72	1685.48
764.90	1642.47
765.08	1761.25
765.27	1789.92
765.45	1599.46
765.63	1578.98
765.82	1605.61
766.00	1710.05
766.18	1617.90
766.37	1642.47
766.55	1642.47
766.74	1705.96
766.92	1599.46
767.10	1603.56
767.29	1714.15
767.47	1613.80
767.65	1624.04
767.84	1671.14
768.02	1730.53
768.20	1753.06
768.39	1671.14
768.57	1621.99
768.75	1699.81
768.94	1744.87
769.12	1673.19
769.30	1607.66
769.49	1742.82
769.67	1607.66
769.85	1781.73
770.04	1638.38
770.22	1671.14
770.40	1703.91
770.59	1560.55
770.77	1800.16
770.95	1712.10
771.14	1740.77
771.32	1611.75
771.50	1650.66
771.69	1593.32
771.87	1640.42
772.05	1605.61
772.24	1628.14
772.42	1722.34
772.60	1773.54
772.78	1730.53
772.97	1581.03
773.15	1708.01
773.33	1679.33
773.52	1601.51
773.70	1597.42
773.88	1705.96
774.07	1619.94
774.25	1552.36
774.43	1720.29
774.61	1654.76
774.80	1644.52
774.98	1691.62
775.16	1712.10
775.34	1716.20
775.53	1746.92
775.71	1699.81
775.89	1685.48
776.08	1642.47
776.26	1683.43
776.44	1742.82
776.62	1613.80
776.81	1683.43
776.99	1640.42
777.17	1554.41
777.35	1738.73
777.54	1712.10
777.72	1607.66
777.90	1589.22
778.08	1595.37
778.27	1636.33
778.45	1591.27
778.63	1646.57
778.81	1708.01
779.00	1675.24
779.18	1605.61
779.36	1775.59
779.54	1705.96
779.73	1652.71
779.91	1636.33
780.09	1650.66
780.27	1634.28
780.46	1705.96
780.64	1650.66
780.82	1660.90
781.00	1646.57
781.19	1607.66
781.37	1669.09
781.55	1720.29
781.73	1646.57
781.91	1642.47
782.10	1681.38
782.28	1714.15
782.46	1744.87
782.64	1722.34
782.82	1691.62
783.01	1658.85
783.19	1757.16
783.37	1638.38
783.55	1601.51
783.74	1665.00
783.92	1654.76
784.10	1681.38
784.28	1705.96
784.46	1705.96
784.64	1636.33
784.83	1728.49
785.01	1767.40
785.19	1718.25
785.37	1765.35
785.55	1665.00
785.74	1681.38
785.92	1658.85
786.10	1617.90
786.28	1771.49
786.46	1703.91
786.64	1642.47
786.83	1665.00
787.01	1656.81
787.19	1689.57
787.37	1806.31
787.55	1658.85
787.74	1591.27
787.92	1683.43
788.10	1705.96
788.28	1640.42
788.46	1681.38
788.64	1587.18
788.82	1775.59
789.01	1574.89
789.19	1718.25
789.37	1697.77
789.55	1675.24
789.73	1603.56
789.91	1703.91
790.09	1566.70
790.28	1601.51
790.46	1621.99
790.64	1646.57
790.82	1679.33
791.00	1607.66
791.18	1699.81
791.36	1695.72
791.55	1601.51
791.73	1615.85
791.91	1621.99
792.09	1667.05
792.27	1615.85
792.45	1718.25
792.63	1748.97
792.81	1640.42
793.00	1718.25
793.18	1683.43
793.36	1675.24
793.54	1673.19
793.72	1665.00
793.90	1636.33
794.08	1597.42
794.26	1683.43
794.44	1595.37
794.62	1605.61
794.81	1535.98
794.99	1691.62
795.17	1798.12
795.35	1560.55
795.53	1697.77
795.71	1705.96
795.89	1613.80
796.07	1667.05
796.25	1695.72
796.43	1779.68
796.61	1757.16
796.80	1656.81
796.98	1691.62
797.16	1642.47
797.34	1617.90
797.52	1632.23
797.70	1757.16
797.88	1746.92
798.06	1556.46
798.24	1703.91
798.42	1648.61
798.60	1753.06
798.78	1648.61
798.96	1691.62
799.14	1619.94
799.32	1714.15
799.51	1603.56
799.69	1824.74
799.87	1740.77
800.05	1626.09
800.23	1513.45
800.41	1628.14
800.59	1654.76
800.77	1640.42
800.95	1556.46
801.13	1765.35
801.31	1673.19
801.49	1726.44
801.67	1591.27
801.85	1621.99
802.03	1656.81
802.21	1673.19
802.39	1619.94
802.57	1624.04
802.75	1658.85
802.93	1732.58
803.11	1595.37
803.29	1652.71
803.47	1642.47
803.65	1607.66
803.83	1554.41
804.01	1609.70
804.19	1583.08
804.37	1669.09
804.55	1617.90
804.73	1632.23
804.91	1556.46
805.09	1716.20
805.27	1687.53
805.45	1687.53
805.63	1636.33
805.81	1669.09
805.99	1720.29
806.17	1644.52
806.35	1574.89
806.53	1615.85
806.71	1751.01
806.89	1630.18
807.07	1769.44
807.25	1728.49
807.43	1665.00
807.61	1714.15
807.79	1714.15
807.97	1615.85
808.15	1726.44
808.33	1624.04
808.51	1691.62
808.69	1654.76
808.87	1634.28
809.05	1660.90
809.23	1611.75
809.41	1576.94
809.59	1583.08
809.77	1716.20
809.95	1669.09
810.13	1695.72
810.31	1705.96
810.49	1699.81
810.67	1712.10
810.84	1671.14
811.02	1712.10
811.20	1570.79
811.38	1740.77
811.56	1601.51
811.74	1652.71
811.92	1642.47
812.10	1740.77
812.28	1744.87
812.46	1656.81
812.64	1638.38
812.82	1662.95
813.00	1621.99
813.18	1568.74
813.36	1705.96
813.53	1679.33
813.71	1757.16
813.89	1644.52
814.07	1564.65
814.25	1697.77
814.43	1576.94
814.61	1597.42
814.79	1699.81
814.97	1708.01
815.15	1673.19
815.33	1568.74
815.50	1581.03
815.68	1587.18
815.86	1705.96
816.04	1658.85
816.22	1648.61
816.40	1642.47
816.58	1646.57
816.76	1628.14
816.94	1669.09
817.11	1611.75
817.29	1656.81
817.47	1691.62
817.65	1609.70
817.83	1583.08
818.01	1619.94
818.19	1538.02
818.37	1716.20
818.54	1763.30
818.72	1722.34
818.90	1630.18
819.08	1699.81
819.26	1642.47
819.44	1675.24
819.62	1650.66
819.80	1550.31
819.97	1695.72
820.15	1648.61
820.33	1591.27
820.51	1576.94
820.69	1679.33
820.87	1650.66
821.05	1699.81
821.22	1605.61
821.40	1753.06
821.58	1769.44
821.76	1619.94
821.94	1597.42
822.12	1669.09
822.29	1648.61
822.47	1652.71
822.65	1685.48
822.83	1591.27
823.01	1681.38
823.19	1613.80
823.36	1607.66
823.54	1654.76
823.72	1667.05
823.90	1740.77
824.08	1570.79
824.25	1708.01
824.43	1628.14
824.61	1570.79
824.79	1687.53
824.97	1593.32
825.15	1673.19
825.32	1617.90
825.50	1693.67
825.68	1603.56
825.86	1722.34
826.04	1581.03
826.21	1777.64
826.39	1632.23
826.57	1662.95
826.75	1708.01
826.93	1685.48
827.10	1716.20
827.28	1634.28
827.46	1658.85
827.64	1689.57
827.81	1609.70
827.99	1630.18
828.17	1695.72
828.35	1593.32
828.53	1587.18
828.70	1656.81
828.88	1634.28
829.06	1603.56
829.24	1638.38
829.41	1697.77
829.59	1648.61
829.77	1646.57
829.95	1650.66
830.12	1611.75
830.30	1630.18
830.48	1691.62
830.66	1628.14
830.84	1681.38
831.01	1677.29
831.19	1613.80
831.37	1662.95
831.55	1638.38
831.72	1699.81
831.90	1718.25
832.08	1673.19
832.25	1646.57
832.43	1667.05
832.61	1755.11
832.79	1587.18
832.96	1703.91
833.14	1753.06
833.32	1751.01
833.50	1581.03
833.67	1656.81
833.85	1587.18
834.03	1562.60
834.20	1669.09
834.38	1771.49
834.56	1675.24
834.74	1587.18
834.91	1628.14
835.09	1798.12
835.27	1638.38
835.44	1701.86
835.62	1576.94
835.80	1617.90
835.98	1597.42
836.15	1685.48
836.33	1667.05
836.51	1599.46
836.68	1726.44
836.86	1591.27
837.04	1691.62
837.21	1767.40
837.39	1771.49
837.57	1744.87
837.75	1699.81
837.92	1679.33
838.10	1708.01
838.28	1652.71
838.45	1646.57
838.63	1601.51
838.81	1701.86
838.98	1646.57
839.16	1681.38
839.34	1542.12
839.51	1650.66
839.69	1652.71
839.87	1601.51
840.04	1667.05
840.22	1937.38
840.40	1617.90
840.57	1583.08
840.75	1638.38
840.93	1589.22
841.10	1624.04
841.28	1738.73
841.46	1621.99
841.63	1748.97
841.81	1628.14
841.98	1568.74
842.16	1740.77
842.34	1599.46
842.51	1486.83
842.69	1677.29
842.87	1669.09
843.04	1716.20
843.22	1630.18
843.40	1640.42
843.57	1560.55
843.75	1624.04
843.92	1683.43
844.10	1671.14
844.28	1640.42
844.45	1572.84
844.63	1603.56
844.81	1656.81
844.98	1748.97
845.16	1658.85
845.33	1710.05
845.51	1693.67
845.69	1662.95
845.86	1667.05
846.04	1527.78
846.21	1599.46
846.39	1634.28
846.57	1558.50
846.74	1613.80
846.92	1615.85
847.09	1665.00
847.27	1683.43
847.45	1650.66
847.62	1667.05
847.80	1591.27
847.97	1654.76
848.15	1658.85
848.32	1595.37
848.50	1730.53
848.68	1591.27
848.85	1675.24
849.03	1486.83
849.20	1634.28
849.38	1683.43
849.56	1591.27
849.73	1544.17
849.91	1640.42
850.08	1738.73
850.26	1527.78
850.43	1642.47
850.61	1662.95
850.78	1542.12
850.96	1646.57
851.14	1552.36
851.31	1794.02
851.49	1621.99
851.66	1660.90
851.84	1533.93
852.01	1650.66
852.19	1566.70
852.36	1644.52
852.54	1628.14
852.71	1595.37
852.89	1724.39
853.07	1578.98
853.24	1544.17
853.42	1603.56
853.59	1617.90
853.77	1652.71
853.94	1712.10
854.12	1738.73
854.29	1611.75
854.47	1617.90
854.64	1677.29
854.82	1609.70
854.99	1679.33
855.17	1613.80
855.34	1607.66
855.52	1630.18
855.69	1785.83
855.87	1662.95
856.04	1685.48
856.22	1716.20
856.39	1638.38
856.57	1615.85
856.74	1689.57
856.92	1738.73
857.09	1589.22
857.27	1687.53
857.44	1638.38
857.62	1716.20
857.79	1748.97
857.97	1654.76
858.14	1599.46
858.32	1640.42
858.49	1650.66
858.67	1683.43
858.84	1712.10
859.02	1634.28
859.19	1552.36
859.37	1492.97
859.54	1583.08
859.72	1593.32
859.89	1705.96
860.06	1562.60
860.24	1601.51
860.41	1753.06
860.59	1501.16
860.76	1599.46
860.94	1466.35
861.11	1638.38
861.29	1621.99
861.46	1648.61
861.64	1576.94
861.81	1773.54
861.98	1583.08
862.16	1619.94
862.33	1581.03
862.51	1603.56
862.68	1644.52
862.86	1632.23
863.03	1624.04
863.21	1599.46
863.38	1615.85
863.55	1660.90
863.73	1681.38
863.90	1683.43
864.08	1658.85
864.25	1626.09
864.43	1642.47
864.60	1617.90
864.77	1732.58
864.95	1671.14
865.12	1560.55
865.30	1724.39
865.47	1638.38
865.64	1724.39
865.82	1621.99
865.99	1697.77
866.17	1656.81
866.34	1716.20
866.51	1554.41
866.69	1650.66
866.86	1703.91
867.04	1642.47
867.21	1689.57
867.38	1544.17
867.56	1648.61
867.73	1662.95
867.91	1642.47
868.08	1583.08
868.25	1621.99
868.43	1630.18
868.60	1632.23
868.78	1492.97
868.95	1714.15
869.12	1701.86
869.30	1650.66
869.47	1640.42
869.64	1701.86
869.82	1621.99
869.99	1667.05
870.16	1757.16
870.34	1722.34
870.51	1718.25
870.69	1552.36
870.86	1628.14
871.03	1710.05
871.21	1640.42
871.38	1730.53
871.55	1587.18
871.73	1630.18
871.90	1691.62
872.07	1613.80
872.25	1482.73
872.42	1636.33
872.59	1535.98
872.77	1642.47
872.94	1574.89
873.11	1642.47
873.29	1740.77
873.46	1585.13
873.63	1705.96
873.81	1656.81
873.98	1699.81
874.15	1644.52
874.33	1644.52
874.50	1640.42
874.67	1705.96
874.85	1546.22
875.02	1605.61
875.19	1603.56
875.37	1695.72
875.54	1597.42
875.71	1624.04
875.88	1789.92
876.06	1619.94
876.23	1708.01
876.40	1599.46
876.58	1726.44
876.75	1742.82
876.92	1578.98
877.10	1673.19
877.27	1705.96
877.44	1699.81
877.61	1621.99
877.79	1705.96
877.96	1605.61
878.13	1660.90
878.31	1630.18
878.48	1626.09
878.65	1708.01
878.82	1554.41
879.00	1642.47
879.17	1736.68
879.34	1658.85
879.51	1624.04
879.69	1621.99
879.86	1517.54
880.03	1630.18
880.21	1673.19
880.38	1624.04
880.55	1658.85
880.72	1642.47
880.90	1611.75
881.07	1615.85
881.24	1761.25
881.41	1617.90
881.59	1593.32
881.76	1683.43
881.93	1695.72
882.10	1583.08
882.28	1656.81
882.45	1742.82
882.62	1703.91
882.79	1751.01
882.96	1499.11
883.14	1626.09
883.31	1673.19
883.48	1599.46
883.65	1617.90
883.83	1660.90
884.00	1601.51
884.17	1626.09
884.34	1599.46
884.51	1679.33
884.69	1714.15
884.86	1662.95
885.03	1667.05
885.20	1601.51
885.38	1720.29
885.55	1619.94
885.72	1703.91
885.89	1638.38
886.06	1660.90
886.24	1703.91
886.41	1675.24
886.58	1773.54
886.75	1671.14
886.92	1531.88
887.10	1607.66
887.27	1613.80
887.44	1759.21
887.61	1714.15
887.78	1714.15
887.95	1720.29
888.13	1634.28
888.30	1681.38
888.47	1621.99
888.64	1695.72
888.81	1716.20
888.99	1560.55
889.16	1644.52
889.33	1581.03
889.50	1638.38
889.67	1634.28
889.84	1621.99
890.01	1689.57
890.19	1679.33
890.36	1632.23
890.53	1660.90
890.70	1640.42
890.87	1716.20
891.04	1699.81
891.22	1624.04
891.39	1624.04
891.56	1585.13
891.73	1689.57
891.90	1597.42
892.07	1542.12
892.24	1607.66
892.42	1660.90
892.59	1591.27
892.76	1638.38
892.93	1585.13
893.10	1601.51
893.27	1656.81
893.44	1544.17
893.61	1660.90
893.79	1724.39
893.96	1595.37
894.13	1671.14
894.30	1552.36
894.47	1697.77
894.64	1730.53
894.81	1615.85
894.98	1695.72
895.15	1570.79
895.33	1605.61
895.50	1617.90
895.67	1675.24
895.84	1607.66
896.01	1624.04
896.18	1576.94
896.35	1716.20
896.52	1630.18
896.69	1636.33
896.86	1630.18
897.04	1748.97
897.21	1679.33
897.38	1642.47
897.55	1701.86
897.72	1648.61
897.89	1609.70
898.06	1673.19
898.23	1636.33
898.40	1640.42
898.57	1652.71
898.74	1632.23
898.91	1566.70
899.08	1646.57
899.26	1722.34
899.43	1695.72
899.60	1607.66
899.77	1710.05
899.94	1558.50
900.11	1650.66
900.28	1671.14
900.45	1677.29
900.62	1583.08
900.79	1679.33
900.96	1654.76
901.13	1621.99
901.30	1566.70
901.47	1507.30
901.64	1572.84
901.81	1716.20
901.98	1652.71
902.15	1693.67
902.32	1562.60
902.49	1574.89
902.66	1699.81
902.83	1662.95
903.01	1558.50
903.18	1587.18
903.35	1609.70
903.52	1587.18
903.69	1607.66
903.86	1642.47
904.03	1613.80
904.20	1681.38
904.37	1724.39
904.54	1615.85
904.71	1615.85
904.88	1535.98
905.05	1644.52
905.22	1683.43
905.39	1519.59
905.56	1572.84
905.73	1529.83
905.90	1585.13
906.07	1658.85
906.24	1716.20
906.41	1683.43
906.58	1689.57
906.75	1605.61
906.92	1628.14
907.09	1589.22
907.26	1701.86
907.43	1601.51
907.60	1697.77
907.77	1583.08
907.93	1658.85
908.10	1601.51
908.27	1720.29
908.44	1521.64
908.61	1533.93
908.78	1601.51
908.95	1720.29
909.12	1624.04
909.29	1617.90
909.46	1601.51
909.63	1683.43
909.80	1593.32
909.97	1619.94
910.14	1646.57
910.31	1519.59
910.48	1605.61
910.65	1630.18
910.82	1566.70
910.99	1648.61
911.16	1724.39
911.33	1640.42
911.50	1634.28
911.66	1583.08
911.83	1665.00
912.00	1662.95
912.17	1566.70
912.34	1593.32
912.51	1650.66
912.68	1642.47
912.85	1665.00
913.02	1683.43
913.19	1570.79
913.36	1675.24
913.53	1683.43
913.70	1591.27
913.86	1777.64
914.03	1585.13
914.20	1679.33
914.37	1546.22
914.54	1650.66
914.71	1726.44
914.88	1644.52
915.05	1576.94
915.22	1636.33
915.39	1609.70
915.55	1619.94
915.72	1552.36
915.89	1634.28
916.06	1662.95
916.23	1652.71
916.40	1656.81
916.57	1642.47
916.74	1693.67
916.91	1636.33
917.07	1562.60
917.24	1568.74
917.41	1611.75
917.58	1697.77
917.75	1552.36
917.92	1533.93
918.09	1566.70
918.26	1654.76
918.42	1628.14
918.59	1654.76
918.76	1605.61
918.93	1572.84
919.10	1636.33
919.27	1667.05
919.44	1722.34
919.60	1658.85
919.77	1560.55
919.94	1587.18
920.11	1652.71
920.28	1742.82
920.45	1662.95
920.61	1564.65
920.78	1671.14
920.95	1720.29
921.12	1691.62
921.29	1624.04
921.46	1542.12
921.62	1576.94
921.79	1708.01
921.96	1583.08
922.13	1662.95
922.30	1601.51
922.47	1615.85
922.63	1617.90
922.80	1646.57
922.97	1568.74
923.14	1574.89
923.31	1605.61
923.47	1609.70
923.64	1808.36
923.81	1548.26
923.98	1691.62
924.15	1591.27
924.32	1648.61
924.48	1650.66
924.65	1787.88
924.82	1605.61
924.99	1654.76
925.15	1527.78
925.32	1761.25
925.49	1568.74
925.66	1640.42
925.83	1619.94
925.99	1607.66
926.16	1724.39
926.33	1695.72
926.50	1538.02
926.67	1695.72
926.83	1646.57
927.00	1648.61
927.17	1638.38
927.34	1519.59
927.50	1628.14
927.67	1732.58
927.84	1685.48
928.01	1660.90
928.17	1681.38
928.34	1581.03
928.51	1624.04
928.68	1617.90
928.84	1638.38
929.01	1640.42
929.18	1568.74
929.35	1601.51
929.51	1642.47
929.68	1564.65
929.85	1646.57
930.02	1679.33
930.18	1662.95
930.35	1636.33
930.52	1626.09
930.69	1638.38
930.85	1705.96
931.02	1615.85
931.19	1681.38
931.36	1630.18
931.52	1660.90
931.69	1624.04
931.86	1611.75
932.02	1591.27
932.19	1654.76
932.36	1689.57
932.53	1640.42
932.69	1597.42
932.86	1712.10
933.03	1683.43
933.19	1576.94
933.36	1615.85
933.53	1736.68
933.70	1603.56
933.86	1679.33
934.03	1634.28
934.20	1621.99
934.36	1726.44
934.53	1626.09
934.70	1544.17
934.86	1665.00
935.03	1609.70
935.20	1626.09
935.36	1644.52
935.53	1601.51
935.70	1558.50
935.86	1650.66
936.03	1576.94
936.20	1495.02
936.36	1574.89
936.53	1667.05
936.70	1644.52
936.86	1806.31
937.03	1665.00
937.20	1605.61
937.36	1744.87
937.53	1542.12
937.70	1527.78
937.86	1601.51
938.03	1630.18
938.20	1732.58
938.36	1654.76
938.53	1658.85
938.70	1574.89
938.86	1662.95
939.03	1591.27
939.20	1544.17
939.36	1605.61
939.53	1591.27
939.70	1777.64
939.86	1583.08
940.03	1568.74
940.19	1605.61
940.36	1650.66
940.53	1652.71
940.69	1621.99
940.86	1742.82
941.03	1599.46
941.19	1591.27
941.36	1662.95
941.52	1646.57
941.69	1679.33
941.86	1642.47
942.02	1697.77
942.19	1746.92
942.35	1757.16
942.52	1621.99
942.69	1624.04
942.85	1665.00
943.02	1679.33
943.18	1583.08
943.35	1632.23
943.52	1619.94
943.68	1509.35
943.85	1628.14
944.01	1650.66
944.18	1648.61
944.35	1695.72
944.51	1630.18
944.68	1519.59
944.84	1583.08
945.01	1560.55
945.17	1624.04
945.34	1630.18
945.51	1677.29
945.67	1705.96
945.84	1630.18
946.00	1495.02
946.17	1595.37
946.33	1591.27
946.50	1621.99
946.67	1615.85
946.83	1675.24
947.00	1699.81
947.16	1591.27
947.33	1564.65
947.49	1552.36
947.66	1601.51
947.82	1671.14
947.99	1634.28
948.16	1621.99
948.32	1642.47
948.49	1716.20
948.65	1673.19
948.82	1605.61
948.98	1640.42
949.15	1593.32
949.31	1681.38
949.48	1521.64
949.64	1617.90
949.81	1576.94
949.97	1626.09
950.14	1615.85
950.30	1624.04
950.47	1601.51
950.63	1665.00
950.80	1632.23
950.96	1574.89
951.13	1581.03
951.30	1603.56
951.46	1601.51
951.63	1640.42
951.79	1578.98
951.96	1646.57
952.12	1605.61
952.29	1640.42
952.45	1572.84
952.62	1658.85
952.78	1638.38
952.94	1613.80
953.11	1495.02
953.27	1560.55
953.44	1683.43
953.60	1642.47
953.77	1691.62
953.93	1634.28
954.10	1683.43
954.26	1601.51
954.43	1519.59
954.59	1755.11
954.76	1742.82
954.92	1685.48
955.09	1617.90
955.25	1585.13
955.42	1603.56
955.58	1583.08
955.75	1638.38
955.91	1533.93
956.07	1546.22
956.24	1669.09
956.40	1615.85
956.57	1683.43
956.73	1644.52
956.90	1701.86
957.06	1607.66
957.23	1609.70
957.39	1503.21
957.56	1617.90
957.72	1501.16
957.88	1533.93
958.05	1609.70
958.21	1638.38
958.38	1560.55
958.54	1595.37
958.71	1681.38
958.87	1568.74
959.03	1566.70
959.20	1605.61
959.36	1499.11
959.53	1591.27
959.69	1609.70
959.85	1634.28
960.02	1568.74
960.18	1599.46
960.35	1640.42
960.51	1716.20
960.68	1597.42
960.84	1605.61
961.00	1548.26
961.17	1568.74
961.33	1640.42
961.50	1593.32
961.66	1589.22
961.82	1617.90
961.99	1642.47
962.15	1589.22
962.31	1535.98
962.48	1617.90
962.64	1712.10
962.81	1642.47
962.97	1650.66
963.13	1673.19
963.30	1605.61
963.46	1466.35
963.62	1613.80
963.79	1632.23
963.95	1660.90
964.12	1587.18
964.28	1697.77
964.44	1535.98
964.61	1619.94
964.77	1667.05
964.93	1683.43
965.10	1566.70
965.26	1476.59
965.42	1576.94
965.59	1613.80
965.75	1597.42
965.92	1677.29
966.08	1656.81
966.24	1646.57
966.41	1667.05
966.57	1720.29
966.73	1662.95
966.90	1689.57
967.06	1671.14
967.22	1615.85
967.39	1576.94
967.55	1650.66
967.71	1613.80
967.88	1554.41
968.04	1540.07
968.20	1603.56
968.37	1552.36
968.53	1613.80
968.69	1619.94
968.85	1626.09
969.02	1591.27
969.18	1677.29
969.34	1621.99
969.51	1648.61
969.67	1777.64
969.83	1568.74
970.00	1755.11
970.16	1628.14
970.32	1665.00
970.48	1691.62
970.65	1601.51
970.81	1593.32
970.97	1669.09
971.14	1511.40
971.30	1628.14
971.46	1605.61
971.63	1556.46
971.79	1621.99
971.95	1634.28
972.11	1593.32
972.28	1568.74
972.44	1636.33
972.60	1499.11
972.76	1605.61
972.93	1597.42
973.09	1683.43
973.25	1605.61
973.42	1634.28
973.58	1671.14
973.74	1593.32
973.90	1619.94
974.07	1624.04
974.23	1615.85
974.39	1611.75
974.55	1628.14
974.72	1609.70
974.88	1497.07
975.04	1589.22
975.20	1564.65
975.37	1621.99
975.53	1562.60
975.69	1589.22
975.85	1578.98
976.01	1613.80
976.18	1593.32
976.34	1626.09
976.50	1705.96
976.66	1746.92
976.83	1681.38
976.99	1589.22
977.15	1712.10
977.31	1525.74
977.47	1673.19
977.64	1605.61
977.80	1609.70
977.96	1679.33
978.12	1619.94
978.29	1681.38
978.45	1566.70
978.61	1607.66
978.77	1665.00
978.93	1529.83
979.10	1662.95
979.26	1572.84
979.42	1644.52
979.58	1593.32
979.74	1574.89
979.91	1564.65
980.07	1591.27
980.23	1624.04
980.39	1617.90
980.55	1675.24
980.71	1578.98
980.88	1581.03
981.04	1601.51
981.20	1665.00
981.36	1667.05
981.52	1640.42
981.68	1597.42
981.85	1591.27
982.01	1599.46
982.17	1560.55
982.33	1581.03
982.49	1732.58
982.65	1589.22
982.82	1617.90
982.98	1603.56
983.14	1593.32
983.30	1744.87
983.46	1574.89
983.62	1624.04
983.79	1540.07
983.95	1523.69
984.11	1570.79
984.27	1624.04
984.43	1617.90
984.59	1527.78
984.75	1650.66
984.91	1671.14
985.08	1654.76
985.24	1564.65
985.40	1570.79
985.56	1695.72
985.72	1650.66
985.88	1740.77
986.04	1548.26
986.20	1466.35
986.37	1681.38
986.53	1550.31
986.69	1642.47
986.85	1548.26
987.01	1650.66
987.17	1613.80
987.33	1599.46
987.49	1607.66
987.65	1617.90
987.82	1640.42
987.98	1566.70
988.14	1617.90
988.30	1771.49
988.46	1548.26
988.62	1624.04
988.78	1589.22
988.94	1640.42
989.10	1593.32
989.26	1533.93
989.42	1654.76
989.59	1535.98
989.75	1574.89
989.91	1699.81
990.07	1621.99
990.23	1626.09
990.39	1654.76
990.55	1644.52
990.71	1613.80
990.87	1652.71
991.03	1644.52
991.19	1535.98
991.35	1605.61
991.51	1658.85
991.67	1665.00
991.83	1566.70
992.00	1542.12
992.16	1585.13
992.32	1591.27
992.48	1591.27
992.64	1521.64
992.80	1650.66
992.96	1550.31
993.12	1628.14
993.28	1628.14
993.44	1576.94
993.60	1581.03
993.76	1646.57
993.92	1624.04
994.08	1603.56
994.24	1648.61
994.40	1572.84
994.56	1599.46
994.72	1646.57
994.88	1519.59
995.04	1548.26
995.20	1552.36
995.36	1499.11
995.52	1665.00
995.68	1589.22
995.84	1656.81
996.00	1726.44
996.16	1560.55
996.32	1570.79
996.48	1654.76
996.64	1708.01
996.80	1603.56
996.96	1574.89
997.12	1576.94
997.28	1587.18
997.44	1552.36
997.60	1558.50
997.76	1593.32
997.92	1626.09
998.08	1597.42
998.24	1576.94
998.40	1619.94
998.56	1632.23
998.72	1560.55
998.88	1609.70
999.04	1581.03
999.20	1611.75
999.36	1501.16
999.52	1644.52
999.68	1558.50
999.84	1759.21
1000.00	1617.90
1000.16	1630.18
1000.32	1531.88
1000.48	1712.10
1000.64	1619.94
1000.80	1593.32
1000.95	1519.59
1001.11	1691.62
1001.27	1550.31
1001.43	1648.61
1001.59	1591.27
1001.75	1550.31
1001.91	1595.37
1002.07	1574.89
1002.23	1548.26
1002.39	1632.23
1002.55	1619.94
1002.71	1617.90
1002.87	1556.46
1003.03	1630.18
1003.19	1572.84
1003.34	1609.70
1003.50	1662.95
1003.66	1693.67
1003.82	1720.29
1003.98	1525.74
1004.14	1722.34
1004.30	1642.47
1004.46	1603.56
1004.62	1636.33
1004.78	1566.70
1004.94	1695.72
1005.09	1650.66
1005.25	1675.24
1005.41	1544.17
1005.57	1562.60
1005.73	1544.17
1005.89	1642.47
1006.05	1617.90
1006.21	1681.38
1006.37	1558.50
1006.52	1552.36
1006.68	1503.21
1006.84	1687.53
1007.00	1581.03
1007.16	1648.61
1007.32	1628.14
1007.48	1617.90
1007.64	1597.42
1007.79	1599.46
1007.95	1558.50
1008.11	1687.53
1008.27	1556.46
1008.43	1621.99
1008.59	1589.22
1008.75	1677.29
1008.91	1667.05
1009.06	1531.88
1009.22	1624.04
1009.38	1548.26
1009.54	1626.09
1009.70	1615.85
1009.86	1656.81
1010.01	1624.04
1010.17	1546.22
1010.33	1646.57
1010.49	1599.46
1010.65	1687.53
1010.81	1597.42
1010.96	1591.27
1011.12	1587.18
1011.28	1574.89
1011.44	1689.57
1011.60	1652.71
1011.76	1531.88
1011.91	1675.24
1012.07	1583.08
1012.23	1564.65
1012.39	1630.18
1012.55	1654.76
1012.71	1609.70
1012.86	1519.59
1013.02	1538.02
1013.18	1531.88
1013.34	1486.83
1013.50	1699.81
1013.65	1605.61
1013.81	1595.37
1013.97	1554.41
1014.13	1662.95
1014.29	1562.60
1014.44	1665.00
1014.60	1615.85
1014.76	1556.46
1014.92	1654.76
1015.07	1630.18
1015.23	1617.90
1015.39	1581.03
1015.55	1576.94
1015.71	1617.90
1015.86	1572.84
1016.02	1519.59
1016.18	1515.50
1016.34	1587.18
1016.49	1581.03
1016.65	1710.05
1016.81	1544.17
1016.97	1638.38
1017.12	1683.43
1017.28	1568.74
1017.44	1476.59
1017.60	1650.66
1017.75	1626.09
1017.91	1638.38
1018.07	1624.04
1018.23	1578.98
1018.38	1548.26
1018.54	1583.08
1018.70	1535.98
1018.86	1558.50
1019.01	1589.22
1019.17	1632.23
1019.33	1646.57
1019.49	1585.13
1019.64	1644.52
1019.80	1607.66
1019.96	1660.90
1020.12	1642.47
1020.27	1544.17
1020.43	1562.60
1020.59	1615.85
1020.74	1626.09
1020.90	1619.94
1021.06	1515.50
1021.22	1619.94
1021.37	1650.66
1021.53	1558.50
1021.69	1646.57
1021.84	1550.31
1022.00	1669.09
1022.16	1591.27
1022.31	1593.32
1022.47	1621.99
1022.63	1677.29
1022.79	1519.59
1022.94	1531.88
1023.10	1683.43
1023.26	1665.00
1023.41	1556.46
1023.57	1611.75
1023.73	1671.14
1023.88	1585.13
1024.04	1527.78
1024.20	1552.36
1024.35	1607.66
1024.51	1665.00
1024.67	1570.79
1024.82	1671.14
1024.98	1597.42
1025.14	1679.33
1025.29	1628.14
1025.45	1722.34
1025.61	1533.93
1025.76	1667.05
1025.92	1568.74
1026.08	1652.71
1026.23	1691.62
1026.39	1662.95
1026.55	1572.84
1026.70	1597.42
1026.86	1587.18
1027.02	1642.47
1027.17	1609.70
1027.33	1658.85
1027.48	1601.51
1027.64	1609.70
1027.80	1576.94
1027.95	1673.19
1028.11	1529.83
1028.27	1730.53
1028.42	1619.94
1028.58	1630.18
1028.73	1550.31
1028.89	1552.36
1029.05	1705.96
1029.20	1626.09
>>>>>End Processed Spectral Data<<<<<
