SpectraSuite Data File
++++++++++++++++++++++++++++++++++++
Date: Fri Jun 02 14:52:22 CEST 2017
User: INFO_000
Dark Spectrum Present: No
Reference Spectrum Present: No
Number of Sampled Component Spectra: 1
Spectrometers: USB4H00879
Integration Time (usec): 80000 (USB4H00879)
Spectra Averaged: 1 (USB4H00879)
Boxcar Smoothing: 0 (USB4H00879)
Correct for Electrical Dark: No (USB4H00879)
Strobe/Lamp Enabled: No (USB4H00879)
Correct for Detector Non-linearity: No (USB4H00879)
Correct for Stray Light: No (USB4H00879)
Number of Pixels in Processed Spectrum: 3648
>>>>>Begin Processed Spectral Data<<<<<
345.13	1322.99
345.34	1322.99
345.56	1322.99
345.78	1355.76
345.99	1222.64
346.21	1695.72
346.42	1759.21
346.64	1710.05
346.86	1816.55
347.07	1628.14
347.29	1681.38
347.50	1658.85
347.72	1603.56
347.94	1744.87
348.15	1640.42
348.37	1634.28
348.59	1726.44
348.80	1650.66
349.02	1716.20
349.23	1751.01
349.45	1650.66
349.67	1761.25
349.88	1705.96
350.10	1798.12
350.31	1689.57
350.53	1693.67
350.75	1826.79
350.96	1656.81
351.18	1710.05
351.39	1746.92
351.61	1650.66
351.82	1755.11
352.04	1740.77
352.26	1744.87
352.47	1714.15
352.69	1789.92
352.90	1671.14
353.12	1681.38
353.34	1660.90
353.55	1748.97
353.77	1679.33
353.98	1705.96
354.20	1689.57
354.41	1773.54
354.63	1777.64
354.85	1824.74
355.06	1753.06
355.28	1642.47
355.49	1720.29
355.71	1578.98
355.92	1667.05
356.14	1687.53
356.35	1763.30
356.57	1691.62
356.79	1708.01
357.00	1654.76
357.22	1699.81
357.43	1662.95
357.65	1761.25
357.86	1648.61
358.08	1679.33
358.29	1742.82
358.51	1810.40
358.72	1732.58
358.94	1761.25
359.16	1689.57
359.37	1699.81
359.59	1738.73
359.80	1767.40
360.02	1740.77
360.23	1681.38
360.45	1740.77
360.66	1818.60
360.88	1650.66
361.09	1732.58
361.31	1671.14
361.52	1712.10
361.74	1769.44
361.95	1902.56
362.17	1744.87
362.38	1826.79
362.60	1822.69
362.81	1755.11
363.03	1732.58
363.24	1675.24
363.46	1804.26
363.67	1685.48
363.89	1675.24
364.10	1732.58
364.32	1652.71
364.53	1748.97
364.75	1615.85
364.96	1736.68
365.18	1699.81
365.39	1693.67
365.61	1650.66
365.82	1757.16
366.04	1699.81
366.25	1652.71
366.47	1759.21
366.68	1779.68
366.90	1662.95
367.11	1773.54
367.33	1732.58
367.54	1767.40
367.76	1632.23
367.97	1746.92
368.19	1687.53
368.40	1763.30
368.62	1599.46
368.83	1703.91
369.05	1748.97
369.26	1607.66
369.48	1665.00
369.69	1667.05
369.91	1726.44
370.12	1697.77
370.33	1736.68
370.55	1646.57
370.76	1691.62
370.98	1720.29
371.19	1751.01
371.41	1669.09
371.62	1726.44
371.84	1638.38
372.05	1771.49
372.27	1740.77
372.48	1714.15
372.69	1748.97
372.91	1757.16
373.12	1728.49
373.34	1712.10
373.55	1671.14
373.77	1761.25
373.98	1705.96
374.20	1724.39
374.41	1806.31
374.62	1679.33
374.84	1718.25
375.05	1724.39
375.27	1634.28
375.48	1685.48
375.70	1662.95
375.91	1742.82
376.12	1753.06
376.34	1691.62
376.55	1665.00
376.77	1732.58
376.98	1630.18
377.19	1638.38
377.41	1605.61
377.62	1681.38
377.84	1681.38
378.05	1781.73
378.27	1675.24
378.48	1871.84
378.69	1855.46
378.91	1789.92
379.12	1732.58
379.34	1738.73
379.55	1761.25
379.76	1691.62
379.98	1767.40
380.19	1712.10
380.41	1753.06
380.62	1732.58
380.83	1716.20
381.05	1689.57
381.26	1814.50
381.47	1701.86
381.69	1742.82
381.90	1822.69
382.12	1677.29
382.33	1667.05
382.54	1689.57
382.76	1703.91
382.97	1642.47
383.19	1699.81
383.40	1720.29
383.61	1720.29
383.83	1673.19
384.04	1708.01
384.25	1767.40
384.47	1742.82
384.68	1701.86
384.89	1701.86
385.11	1632.23
385.32	1583.08
385.54	1638.38
385.75	1609.70
385.96	1697.77
386.18	1642.47
386.39	1748.97
386.60	1652.71
386.82	1720.29
387.03	1648.61
387.24	1689.57
387.46	1677.29
387.67	1697.77
387.88	1832.93
388.10	1683.43
388.31	1671.14
388.52	1759.21
388.74	1695.72
388.95	1701.86
389.16	1714.15
389.38	1630.18
389.59	1753.06
389.80	1722.34
390.02	1712.10
390.23	1777.64
390.44	1638.38
390.66	1644.52
390.87	1583.08
391.08	1705.96
391.30	1755.11
391.51	1744.87
391.72	1728.49
391.94	1771.49
392.15	1665.00
392.36	1687.53
392.58	1646.57
392.79	1621.99
393.00	1714.15
393.22	1732.58
393.43	1755.11
393.64	1765.35
393.85	1757.16
394.07	1681.38
394.28	1681.38
394.49	1640.42
394.71	1701.86
394.92	1818.60
395.13	1654.76
395.35	1693.67
395.56	1710.05
395.77	1665.00
395.98	1679.33
396.20	1734.63
396.41	1652.71
396.62	1722.34
396.84	1685.48
397.05	1628.14
397.26	1665.00
397.47	1746.92
397.69	1691.62
397.90	1830.88
398.11	1685.48
398.32	1611.75
398.54	1705.96
398.75	1654.76
398.96	1644.52
399.18	1816.55
399.39	1652.71
399.60	1738.73
399.81	1722.34
400.03	1624.04
400.24	1898.47
400.45	1718.25
400.66	1695.72
400.88	1691.62
401.09	1886.18
401.30	1667.05
401.51	1761.25
401.73	1800.16
401.94	1744.87
402.15	1724.39
402.36	1720.29
402.58	1722.34
402.79	1748.97
403.00	1634.28
403.21	1722.34
403.43	1843.17
403.64	1751.01
403.85	1667.05
404.06	1724.39
404.27	1646.57
404.49	1699.81
404.70	1703.91
404.91	1738.73
405.12	1724.39
405.34	1820.64
405.55	1738.73
405.76	1675.24
405.97	1665.00
406.19	1794.02
406.40	1615.85
406.61	1720.29
406.82	1638.38
407.03	1626.09
407.25	1615.85
407.46	1810.40
407.67	1738.73
407.88	1757.16
408.09	1742.82
408.31	1724.39
408.52	1701.86
408.73	1724.39
408.94	1730.53
409.15	1718.25
409.37	1851.36
409.58	1687.53
409.79	1712.10
410.00	1783.78
410.21	1712.10
410.43	1699.81
410.64	1671.14
410.85	1765.35
411.06	1763.30
411.27	1697.77
411.48	1855.46
411.70	1689.57
411.91	1748.97
412.12	1673.19
412.33	1804.26
412.54	1648.61
412.76	1650.66
412.97	1896.42
413.18	1757.16
413.39	1781.73
413.60	1687.53
413.81	1638.38
414.03	1603.56
414.24	1665.00
414.45	1798.12
414.66	1607.66
414.87	1705.96
415.08	1673.19
415.30	1779.68
415.51	1779.68
415.72	1646.57
415.93	1683.43
416.14	1796.07
416.35	1697.77
416.56	1769.44
416.78	1701.86
416.99	1728.49
417.20	1757.16
417.41	1738.73
417.62	1691.62
417.83	1816.55
418.04	1718.25
418.26	1724.39
418.47	1732.58
418.68	1730.53
418.89	1742.82
419.10	1853.41
419.31	1757.16
419.52	1753.06
419.73	1654.76
419.95	1732.58
420.16	1630.18
420.37	1613.80
420.58	1763.30
420.79	1564.65
421.00	1660.90
421.21	1667.05
421.42	1697.77
421.63	1736.68
421.85	1644.52
422.06	1691.62
422.27	1730.53
422.48	1732.58
422.69	1685.48
422.90	1648.61
423.11	1644.52
423.32	1765.35
423.53	1810.40
423.75	1601.51
423.96	1839.08
424.17	1757.16
424.38	1783.78
424.59	1716.20
424.80	1703.91
425.01	1724.39
425.22	1619.94
425.43	1724.39
425.64	1796.07
425.85	1808.36
426.06	1777.64
426.28	1658.85
426.49	1738.73
426.70	1585.13
426.91	1705.96
427.12	1738.73
427.33	1656.81
427.54	1656.81
427.75	1667.05
427.96	1742.82
428.17	1675.24
428.38	1619.94
428.59	1736.68
428.80	1708.01
429.01	1687.53
429.23	1730.53
429.44	1693.67
429.65	1732.58
429.86	1736.68
430.07	1650.66
430.28	1695.72
430.49	1705.96
430.70	1761.25
430.91	1849.32
431.12	1689.57
431.33	1736.68
431.54	1775.59
431.75	1685.48
431.96	1658.85
432.17	1724.39
432.38	1746.92
432.59	1763.30
432.80	1701.86
433.01	1761.25
433.22	1759.21
433.43	1636.33
433.64	1693.67
433.85	1732.58
434.06	1662.95
434.27	1691.62
434.49	1677.29
434.70	1794.02
434.91	1748.97
435.12	1693.67
435.33	1671.14
435.54	1720.29
435.75	1574.89
435.96	1650.66
436.17	1726.44
436.38	1699.81
436.59	1656.81
436.80	1529.83
437.01	1744.87
437.22	1652.71
437.43	1716.20
437.64	1581.03
437.85	1683.43
438.06	1781.73
438.27	1746.92
438.48	1705.96
438.69	1710.05
438.90	1656.81
439.11	1648.61
439.32	1746.92
439.53	1679.33
439.74	1603.56
439.95	1730.53
440.16	1630.18
440.37	1746.92
440.57	1605.61
440.78	1636.33
440.99	1695.72
441.20	1675.24
441.41	1556.46
441.62	1636.33
441.83	1703.91
442.04	1693.67
442.25	1716.20
442.46	1570.79
442.67	1640.42
442.88	1806.31
443.09	1667.05
443.30	1617.90
443.51	1722.34
443.72	1748.97
443.93	1665.00
444.14	1763.30
444.35	1621.99
444.56	1662.95
444.77	1669.09
444.98	1718.25
445.19	1687.53
445.40	1683.43
445.61	1611.75
445.81	1603.56
446.02	1748.97
446.23	1665.00
446.44	1593.32
446.65	1689.57
446.86	1753.06
447.07	1847.27
447.28	1683.43
447.49	1705.96
447.70	1681.38
447.91	1791.97
448.12	1710.05
448.33	1746.92
448.54	1615.85
448.74	1718.25
448.95	1730.53
449.16	1703.91
449.37	1720.29
449.58	1695.72
449.79	1695.72
450.00	1673.19
450.21	1730.53
450.42	1660.90
450.63	1691.62
450.84	1617.90
451.05	1751.01
451.25	1718.25
451.46	1630.18
451.67	1843.17
451.88	1685.48
452.09	1632.23
452.30	1693.67
452.51	1636.33
452.72	1755.11
452.93	1818.60
453.13	1667.05
453.34	1644.52
453.55	1654.76
453.76	1662.95
453.97	1673.19
454.18	1542.12
454.39	1720.29
454.60	1697.77
454.81	1722.34
455.01	1722.34
455.22	1630.18
455.43	1624.04
455.64	1744.87
455.85	1708.01
456.06	1816.55
456.27	1753.06
456.48	1703.91
456.68	1671.14
456.89	1765.35
457.10	1732.58
457.31	1687.53
457.52	1699.81
457.73	1679.33
457.94	1720.29
458.14	1638.38
458.35	1744.87
458.56	1726.44
458.77	1695.72
458.98	1695.72
459.19	1720.29
459.39	1720.29
459.60	1665.00
459.81	1685.48
460.02	1658.85
460.23	1656.81
460.44	1599.46
460.65	1714.15
460.85	1710.05
461.06	1705.96
461.27	1726.44
461.48	1648.61
461.69	1642.47
461.89	1609.70
462.10	1624.04
462.31	1611.75
462.52	1527.78
462.73	1615.85
462.94	1728.49
463.14	1677.29
463.35	1658.85
463.56	1751.01
463.77	1738.73
463.98	1630.18
464.18	1712.10
464.39	1773.54
464.60	1740.77
464.81	1564.65
465.02	1679.33
465.23	1693.67
465.43	1691.62
465.64	1689.57
465.85	1681.38
466.06	1652.71
466.27	1712.10
466.47	1605.61
466.68	1767.40
466.89	1685.48
467.10	1632.23
467.30	1656.81
467.51	1736.68
467.72	1783.78
467.93	1603.56
468.14	1615.85
468.34	1699.81
468.55	1675.24
468.76	1777.64
468.97	1736.68
469.17	1671.14
469.38	1820.64
469.59	1691.62
469.80	1640.42
470.01	1712.10
470.21	1675.24
470.42	1628.14
470.63	1697.77
470.84	1822.69
471.04	1667.05
471.25	1736.68
471.46	1771.49
471.67	1847.27
471.87	1638.38
472.08	1708.01
472.29	1718.25
472.50	1730.53
472.70	1753.06
472.91	1730.53
473.12	1648.61
473.33	1761.25
473.53	1718.25
473.74	1677.29
473.95	1650.66
474.16	1642.47
474.36	1564.65
474.57	1765.35
474.78	1648.61
474.99	1679.33
475.19	1705.96
475.40	1708.01
475.61	1660.90
475.81	1773.54
476.02	1738.73
476.23	1683.43
476.44	1617.90
476.64	1636.33
476.85	1656.81
477.06	1675.24
477.27	1574.89
477.47	1753.06
477.68	1669.09
477.89	1736.68
478.09	1693.67
478.30	1712.10
478.51	1720.29
478.71	1646.57
478.92	1703.91
479.13	1728.49
479.34	1624.04
479.54	1734.63
479.75	1634.28
479.96	1732.58
480.16	1669.09
480.37	1671.14
480.58	1683.43
480.78	1843.17
480.99	1636.33
481.20	1716.20
481.41	1687.53
481.61	1683.43
481.82	1779.68
482.03	1667.05
482.23	1601.51
482.44	1769.44
482.65	1855.46
482.85	1748.97
483.06	1738.73
483.27	1748.97
483.47	1708.01
483.68	1695.72
483.89	1673.19
484.09	1738.73
484.30	1718.25
484.51	1728.49
484.71	1652.71
484.92	1601.51
485.13	1689.57
485.33	1683.43
485.54	1681.38
485.75	1773.54
485.95	1724.39
486.16	1611.75
486.37	1660.90
486.57	1611.75
486.78	1628.14
486.98	1781.73
487.19	1673.19
487.40	1732.58
487.60	1658.85
487.81	1714.15
488.02	1609.70
488.22	1617.90
488.43	1818.60
488.64	1646.57
488.84	1665.00
489.05	1744.87
489.25	1658.85
489.46	1665.00
489.67	1681.38
489.87	1705.96
490.08	1712.10
490.29	1583.08
490.49	1826.79
490.70	1634.28
490.90	1695.72
491.11	1607.66
491.32	1658.85
491.52	1642.47
491.73	1710.05
491.94	1656.81
492.14	1691.62
492.35	1650.66
492.55	1751.01
492.76	1599.46
492.97	1683.43
493.17	1712.10
493.38	1685.48
493.58	1794.02
493.79	1601.51
494.00	1677.29
494.20	1701.86
494.41	1789.92
494.61	1658.85
494.82	1650.66
495.02	1624.04
495.23	1734.63
495.44	1734.63
495.64	1757.16
495.85	1687.53
496.05	1783.78
496.26	1744.87
496.47	1683.43
496.67	1634.28
496.88	1771.49
497.08	1691.62
497.29	1695.72
497.49	1705.96
497.70	1662.95
497.91	1708.01
498.11	1781.73
498.32	1675.24
498.52	1791.97
498.73	1658.85
498.93	1695.72
499.14	1759.21
499.34	1712.10
499.55	1769.44
499.76	1669.09
499.96	1660.90
500.17	1683.43
500.37	1703.91
500.58	1751.01
500.78	1675.24
500.99	1648.61
501.19	1683.43
501.40	1785.83
501.60	1609.70
501.81	1667.05
502.02	1683.43
502.22	1656.81
502.43	1662.95
502.63	1796.07
502.84	1751.01
503.04	1699.81
503.25	1724.39
503.45	1675.24
503.66	1642.47
503.86	1714.15
504.07	1775.59
504.27	1675.24
504.48	1695.72
504.68	1679.33
504.89	1804.26
505.09	1636.33
505.30	1634.28
505.50	1724.39
505.71	1710.05
505.91	1703.91
506.12	1716.20
506.32	1703.91
506.53	1640.42
506.73	1759.21
506.94	1626.09
507.14	1685.48
507.35	1802.21
507.55	1652.71
507.76	1675.24
507.96	1650.66
508.17	1789.92
508.37	1681.38
508.58	1810.40
508.78	1714.15
508.99	1824.74
509.19	1783.78
509.40	1748.97
509.60	1695.72
509.81	1695.72
510.01	1578.98
510.22	1652.71
510.42	1773.54
510.63	1798.12
510.83	1689.57
511.04	1642.47
511.24	1781.73
511.44	1720.29
511.65	1691.62
511.85	1665.00
512.06	1716.20
512.26	1669.09
512.47	1769.44
512.67	1738.73
512.88	1746.92
513.08	1675.24
513.29	1697.77
513.49	1695.72
513.69	1679.33
513.90	1589.22
514.10	1726.44
514.31	1675.24
514.51	1613.80
514.72	1718.25
514.92	1802.21
515.13	1665.00
515.33	1658.85
515.53	1705.96
515.74	1708.01
515.94	1658.85
516.15	1673.19
516.35	1574.89
516.56	1585.13
516.76	1609.70
516.96	1658.85
517.17	1779.68
517.37	1757.16
517.58	1654.76
517.78	1689.57
517.99	1714.15
518.19	1773.54
518.39	1662.95
518.60	1740.77
518.80	1722.34
519.01	1740.77
519.21	1740.77
519.41	1746.92
519.62	1601.51
519.82	1675.24
520.03	1685.48
520.23	1738.73
520.43	1662.95
520.64	1794.02
520.84	1740.77
521.05	1613.80
521.25	1705.96
521.45	1658.85
521.66	1701.86
521.86	1777.64
522.07	1644.52
522.27	1740.77
522.47	1650.66
522.68	1677.29
522.88	1640.42
523.08	1773.54
523.29	1535.98
523.49	1619.94
523.70	1720.29
523.90	1689.57
524.10	1613.80
524.31	1662.95
524.51	1593.32
524.71	1812.45
524.92	1685.48
525.12	1597.42
525.33	1652.71
525.53	1689.57
525.73	1728.49
525.94	1630.18
526.14	1691.62
526.34	1595.37
526.55	1671.14
526.75	1673.19
526.95	1843.17
527.16	1568.74
527.36	1767.40
527.56	1712.10
527.77	1615.85
527.97	1714.15
528.17	1724.39
528.38	1699.81
528.58	1691.62
528.78	1675.24
528.99	1648.61
529.19	1748.97
529.39	1621.99
529.60	1628.14
529.80	1691.62
530.00	1607.66
530.21	1705.96
530.41	1697.77
530.61	1730.53
530.82	1716.20
531.02	1693.67
531.22	1740.77
531.43	1650.66
531.63	1708.01
531.83	1693.67
532.04	1751.01
532.24	1712.10
532.44	1595.37
532.64	1763.30
532.85	1642.47
533.05	1654.76
533.25	1615.85
533.46	1642.47
533.66	1656.81
533.86	1742.82
534.07	1781.73
534.27	1703.91
534.47	1693.67
534.67	1708.01
534.88	1683.43
535.08	1687.53
535.28	1660.90
535.49	1611.75
535.69	1732.58
535.89	1705.96
536.09	1744.87
536.30	1744.87
536.50	1695.72
536.70	1757.16
536.91	1654.76
537.11	1701.86
537.31	1689.57
537.51	1697.77
537.72	1712.10
537.92	1728.49
538.12	1755.11
538.32	1751.01
538.53	1734.63
538.73	1742.82
538.93	1699.81
539.13	1720.29
539.34	1787.88
539.54	1615.85
539.74	1765.35
539.94	1644.52
540.15	1783.78
540.35	1726.44
540.55	1705.96
540.75	1607.66
540.96	1744.87
541.16	1658.85
541.36	1720.29
541.56	1744.87
541.77	1832.93
541.97	1701.86
542.17	1658.85
542.37	1781.73
542.58	1779.68
542.78	1740.77
542.98	1703.91
543.18	1748.97
543.38	1726.44
543.59	1705.96
543.79	1665.00
543.99	1685.48
544.19	1638.38
544.40	1695.72
544.60	1691.62
544.80	1689.57
545.00	1654.76
545.20	1832.93
545.41	1726.44
545.61	1609.70
545.81	1681.38
546.01	1755.11
546.21	1708.01
546.42	1728.49
546.62	1794.02
546.82	1658.85
547.02	1656.81
547.22	1712.10
547.43	1722.34
547.63	1632.23
547.83	1630.18
548.03	1716.20
548.23	1742.82
548.44	1703.91
548.64	1675.24
548.84	1673.19
549.04	1699.81
549.24	1851.36
549.45	1832.93
549.65	1628.14
549.85	1718.25
550.05	1644.52
550.25	1634.28
550.45	1837.03
550.66	1730.53
550.86	1667.05
551.06	1679.33
551.26	1658.85
551.46	1708.01
551.66	1734.63
551.87	1708.01
552.07	1572.84
552.27	1703.91
552.47	1832.93
552.67	1716.20
552.87	1757.16
553.07	1691.62
553.28	1699.81
553.48	1677.29
553.68	1585.13
553.88	1738.73
554.08	1679.33
554.28	1619.94
554.48	1660.90
554.69	1714.15
554.89	1697.77
555.09	1634.28
555.29	1624.04
555.49	1742.82
555.69	1683.43
555.89	1708.01
556.10	1703.91
556.30	1665.00
556.50	1728.49
556.70	1744.87
556.90	1703.91
557.10	1632.23
557.30	1705.96
557.50	1650.66
557.70	1720.29
557.91	1671.14
558.11	1673.19
558.31	1755.11
558.51	1654.76
558.71	1720.29
558.91	1810.40
559.11	1630.18
559.31	1607.66
559.51	1701.86
559.72	1861.60
559.92	1656.81
560.12	1683.43
560.32	1834.98
560.52	1718.25
560.72	1699.81
560.92	1720.29
561.12	1730.53
561.32	1626.09
561.52	1564.65
561.72	1853.41
561.93	1671.14
562.13	1611.75
562.33	1777.64
562.53	1658.85
562.73	1679.33
562.93	1732.58
563.13	1732.58
563.33	1740.77
563.53	1761.25
563.73	1708.01
563.93	1732.58
564.13	1845.22
564.33	1730.53
564.53	1726.44
564.74	1581.03
564.94	1650.66
565.14	1697.77
565.34	1734.63
565.54	1695.72
565.74	1712.10
565.94	1691.62
566.14	1695.72
566.34	1650.66
566.54	1644.52
566.74	1667.05
566.94	1681.38
567.14	1685.48
567.34	1736.68
567.54	1720.29
567.74	1755.11
567.94	1650.66
568.14	1638.38
568.34	1830.88
568.54	1632.23
568.74	1724.39
568.94	1761.25
569.14	1771.49
569.34	1640.42
569.54	1609.70
569.75	1656.81
569.95	1658.85
570.15	1785.83
570.35	1779.68
570.55	1613.80
570.75	1705.96
570.95	1775.59
571.15	1705.96
571.35	1630.18
571.55	1583.08
571.75	1740.77
571.95	1705.96
572.15	1665.00
572.35	1722.34
572.55	1742.82
572.75	1658.85
572.95	1589.22
573.15	1826.79
573.35	1738.73
573.55	1730.53
573.75	1660.90
573.95	1818.60
574.15	1769.44
574.35	1617.90
574.55	1609.70
574.75	1667.05
574.95	1740.77
575.15	1699.81
575.34	1638.38
575.54	1583.08
575.74	1591.27
575.94	1669.09
576.14	1685.48
576.34	1726.44
576.54	1701.86
576.74	1753.06
576.94	1644.52
577.14	1712.10
577.34	1691.62
577.54	1730.53
577.74	1564.65
577.94	1683.43
578.14	1658.85
578.34	1765.35
578.54	1585.13
578.74	1691.62
578.94	1683.43
579.14	1761.25
579.34	1613.80
579.54	1673.19
579.74	1617.90
579.94	1726.44
580.13	1699.81
580.33	1685.48
580.53	1667.05
580.73	1601.51
580.93	1773.54
581.13	1710.05
581.33	1732.58
581.53	1658.85
581.73	1724.39
581.93	1562.60
582.13	1730.53
582.33	1724.39
582.53	1632.23
582.73	1685.48
582.92	1652.71
583.12	1644.52
583.32	1634.28
583.52	1703.91
583.72	1771.49
583.92	1679.33
584.12	1701.86
584.32	1691.62
584.52	1587.18
584.72	1675.24
584.92	1695.72
585.11	1650.66
585.31	1732.58
585.51	1634.28
585.71	1705.96
585.91	1771.49
586.11	1652.71
586.31	1759.21
586.51	1642.47
586.71	1744.87
586.91	1658.85
587.10	1787.88
587.30	1789.92
587.50	1658.85
587.70	1677.29
587.90	1689.57
588.10	1728.49
588.30	1652.71
588.50	1695.72
588.69	1697.77
588.89	1794.02
589.09	1730.53
589.29	1671.14
589.49	1677.29
589.69	1646.57
589.89	1679.33
590.08	1671.14
590.28	1681.38
590.48	1722.34
590.68	1722.34
590.88	1638.38
591.08	1642.47
591.28	1712.10
591.47	1691.62
591.67	1628.14
591.87	1732.58
592.07	1810.40
592.27	1581.03
592.47	1615.85
592.67	1826.79
592.86	1642.47
593.06	1689.57
593.26	1761.25
593.46	1761.25
593.66	1615.85
593.86	1703.91
594.05	1705.96
594.25	1726.44
594.45	1658.85
594.65	1824.74
594.85	1675.24
595.05	1679.33
595.24	1708.01
595.44	1667.05
595.64	1679.33
595.84	1810.40
596.04	1683.43
596.23	1675.24
596.43	1640.42
596.63	1773.54
596.83	1656.81
597.03	1716.20
597.22	1720.29
597.42	1695.72
597.62	1738.73
597.82	1746.92
598.02	1791.97
598.21	1708.01
598.41	1691.62
598.61	1695.72
598.81	1705.96
599.01	1716.20
599.20	1697.77
599.40	1648.61
599.60	1712.10
599.80	1714.15
600.00	1775.59
600.19	1714.15
600.39	1650.66
600.59	1644.52
600.79	1738.73
600.98	1720.29
601.18	1724.39
601.38	1699.81
601.58	1634.28
601.78	1726.44
601.97	1734.63
602.17	1748.97
602.37	1611.75
602.57	1697.77
602.76	1773.54
602.96	1695.72
603.16	1621.99
603.36	1759.21
603.55	1646.57
603.75	1634.28
603.95	1728.49
604.15	1757.16
604.34	1675.24
604.54	1701.86
604.74	1773.54
604.94	1693.67
605.13	1689.57
605.33	1656.81
605.53	1634.28
605.73	1648.61
605.92	1699.81
606.12	1652.71
606.32	1746.92
606.52	1804.26
606.71	1740.77
606.91	1708.01
607.11	1662.95
607.30	1746.92
607.50	1710.05
607.70	1697.77
607.90	1679.33
608.09	1601.51
608.29	1751.01
608.49	1755.11
608.68	1665.00
608.88	1660.90
609.08	1642.47
609.28	1773.54
609.47	1675.24
609.67	1654.76
609.87	1763.30
610.06	1787.88
610.26	1669.09
610.46	1855.46
610.66	1613.80
610.85	1585.13
611.05	1716.20
611.25	1755.11
611.44	1609.70
611.64	1751.01
611.84	1718.25
612.03	1640.42
612.23	1712.10
612.43	1796.07
612.62	1667.05
612.82	1669.09
613.02	1748.97
613.21	1755.11
613.41	1714.15
613.61	1699.81
613.80	1691.62
614.00	1697.77
614.20	1771.49
614.39	1781.73
614.59	1789.92
614.79	1646.57
614.98	1730.53
615.18	1732.58
615.38	1701.86
615.57	1615.85
615.77	1826.79
615.97	1593.32
616.16	1716.20
616.36	1777.64
616.56	1656.81
616.75	1634.28
616.95	1617.90
617.15	1800.16
617.34	1624.04
617.54	1794.02
617.74	1791.97
617.93	1761.25
618.13	1699.81
618.32	1673.19
618.52	1738.73
618.72	1646.57
618.91	1769.44
619.11	1773.54
619.31	1708.01
619.50	1617.90
619.70	1679.33
619.90	1728.49
620.09	1683.43
620.29	1675.24
620.48	1822.69
620.68	1705.96
620.88	1755.11
621.07	1742.82
621.27	1705.96
621.46	1699.81
621.66	1755.11
621.86	1638.38
622.05	1699.81
622.25	1779.68
622.44	1738.73
622.64	1667.05
622.84	1763.30
623.03	1695.72
623.23	1611.75
623.42	1730.53
623.62	1705.96
623.82	1703.91
624.01	1738.73
624.21	1632.23
624.40	1796.07
624.60	1634.28
624.80	1626.09
624.99	1736.68
625.19	1716.20
625.38	1722.34
625.58	1699.81
625.77	1728.49
625.97	1755.11
626.17	1667.05
626.36	1593.32
626.56	1732.58
626.75	1650.66
626.95	1671.14
627.14	1744.87
627.34	1656.81
627.54	1796.07
627.73	1769.44
627.93	1761.25
628.12	1658.85
628.32	1732.58
628.51	1665.00
628.71	1738.73
628.90	1798.12
629.10	1720.29
629.30	1624.04
629.49	1742.82
629.69	1671.14
629.88	1677.29
630.08	1785.83
630.27	1839.08
630.47	1751.01
630.66	1714.15
630.86	1757.16
631.05	1589.22
631.25	1675.24
631.44	1802.21
631.64	1626.09
631.84	1601.51
632.03	1757.16
632.23	1691.62
632.42	1748.97
632.62	1597.42
632.81	1642.47
633.01	1708.01
633.20	1744.87
633.40	1824.74
633.59	1679.33
633.79	1736.68
633.98	1650.66
634.18	1798.12
634.37	1796.07
634.57	1658.85
634.76	1716.20
634.96	1732.58
635.15	1789.92
635.35	1708.01
635.54	1644.52
635.74	1683.43
635.93	1619.94
636.13	1722.34
636.32	1781.73
636.52	1740.77
636.71	1624.04
636.91	1673.19
637.10	1767.40
637.30	1673.19
637.49	1679.33
637.69	1787.88
637.88	1722.34
638.08	1685.48
638.27	1703.91
638.46	1634.28
638.66	1691.62
638.85	1660.90
639.05	1722.34
639.24	1765.35
639.44	1671.14
639.63	1843.17
639.83	1781.73
640.02	1689.57
640.22	1665.00
640.41	1607.66
640.61	1781.73
640.80	1660.90
640.99	1671.14
641.19	1832.93
641.38	1767.40
641.58	1675.24
641.77	1650.66
641.97	1617.90
642.16	1662.95
642.36	1732.58
642.55	1677.29
642.74	1798.12
642.94	1681.38
643.13	1619.94
643.33	1669.09
643.52	1638.38
643.72	1773.54
643.91	1658.85
644.10	1673.19
644.30	1617.90
644.49	1724.39
644.69	1738.73
644.88	1671.14
645.08	1699.81
645.27	1695.72
645.46	1693.67
645.66	1769.44
645.85	1732.58
646.05	1742.82
646.24	1662.95
646.43	1753.06
646.63	1720.29
646.82	1640.42
647.02	1708.01
647.21	1820.64
647.40	1613.80
647.60	1685.48
647.79	1791.97
647.99	1683.43
648.18	1671.14
648.37	1785.83
648.57	1730.53
648.76	1650.66
648.96	1662.95
649.15	1703.91
649.34	1834.98
649.54	1753.06
649.73	1667.05
649.92	1634.28
650.12	1728.49
650.31	1781.73
650.51	1953.76
650.70	1708.01
650.89	1712.10
651.09	1726.44
651.28	1748.97
651.47	1677.29
651.67	1730.53
651.86	1751.01
652.06	1646.57
652.25	1726.44
652.44	1589.22
652.64	1728.49
652.83	1714.15
653.02	1785.83
653.22	1632.23
653.41	1558.50
653.60	1638.38
653.80	1617.90
653.99	1705.96
654.18	1593.32
654.38	1595.37
654.57	1708.01
654.76	1648.61
654.96	1720.29
655.15	1691.62
655.34	1744.87
655.54	1617.90
655.73	1658.85
655.92	1621.99
656.12	1687.53
656.31	1740.77
656.50	1837.03
656.70	1703.91
656.89	1626.09
657.08	1662.95
657.28	1728.49
657.47	1642.47
657.66	1621.99
657.86	1724.39
658.05	1802.21
658.24	1710.05
658.43	1673.19
658.63	1638.38
658.82	1722.34
659.01	1722.34
659.21	1712.10
659.40	1683.43
659.59	1689.57
659.79	1650.66
659.98	1759.21
660.17	1697.77
660.36	1708.01
660.56	1671.14
660.75	1722.34
660.94	1669.09
661.14	1681.38
661.33	1630.18
661.52	1720.29
661.71	1712.10
661.91	1675.24
662.10	1748.97
662.29	1619.94
662.49	1736.68
662.68	1599.46
662.87	1667.05
663.06	1671.14
663.26	1578.98
663.45	1804.26
663.64	1710.05
663.83	1714.15
664.03	1765.35
664.22	1757.16
664.41	1826.79
664.60	1751.01
664.80	1601.51
664.99	1779.68
665.18	1740.77
665.37	1716.20
665.57	1804.26
665.76	1751.01
665.95	1712.10
666.14	1734.63
666.34	1658.85
666.53	1695.72
666.72	1634.28
666.91	1736.68
667.11	1724.39
667.30	1941.47
667.49	1693.67
667.68	1816.55
667.87	1748.97
668.07	1751.01
668.26	1634.28
668.45	1611.75
668.64	1759.21
668.84	1775.59
669.03	1718.25
669.22	1771.49
669.41	1712.10
669.60	1656.81
669.80	1814.50
669.99	1738.73
670.18	1648.61
670.37	1773.54
670.57	1755.11
670.76	1814.50
670.95	1798.12
671.14	1683.43
671.33	1699.81
671.53	1773.54
671.72	1785.83
671.91	1767.40
672.10	1640.42
672.29	1783.78
672.48	1671.14
672.68	1726.44
672.87	1595.37
673.06	1669.09
673.25	1679.33
673.44	1665.00
673.64	1640.42
673.83	1673.19
674.02	1624.04
674.21	1757.16
674.40	1705.96
674.59	1703.91
674.79	1753.06
674.98	1781.73
675.17	1693.67
675.36	1609.70
675.55	1636.33
675.74	1683.43
675.94	1759.21
676.13	1695.72
676.32	1624.04
676.51	1671.14
676.70	1570.79
676.89	1708.01
677.08	1701.86
677.28	1808.36
677.47	1726.44
677.66	1746.92
677.85	1677.29
678.04	1636.33
678.23	1662.95
678.42	1712.10
678.62	1609.70
678.81	1718.25
679.00	1699.81
679.19	1822.69
679.38	1691.62
679.57	1689.57
679.76	1650.66
679.96	1697.77
680.15	1742.82
680.34	1660.90
680.53	1753.06
680.72	1705.96
680.91	1656.81
681.10	1785.83
681.29	1740.77
681.48	1748.97
681.68	1710.05
681.87	1791.97
682.06	1779.68
682.25	1757.16
682.44	1632.23
682.63	1761.25
682.82	1554.41
683.01	1742.82
683.20	1701.86
683.39	1740.77
683.59	1691.62
683.78	1673.19
683.97	1658.85
684.16	1568.74
684.35	1570.79
684.54	1687.53
684.73	1691.62
684.92	1628.14
685.11	1759.21
685.30	1785.83
685.49	1679.33
685.69	1748.97
685.88	1667.05
686.07	1636.33
686.26	1650.66
686.45	1564.65
686.64	1679.33
686.83	1732.58
687.02	1730.53
687.21	1871.84
687.40	1697.77
687.59	1882.08
687.78	1753.06
687.97	1800.16
688.16	1740.77
688.35	1650.66
688.54	1687.53
688.74	1488.87
688.93	1732.58
689.12	1658.85
689.31	1794.02
689.50	1769.44
689.69	1675.24
689.88	1662.95
690.07	1683.43
690.26	1728.49
690.45	1603.56
690.64	1652.71
690.83	1662.95
691.02	1683.43
691.21	1783.78
691.40	1650.66
691.59	1712.10
691.78	1712.10
691.97	1636.33
692.16	1710.05
692.35	1677.29
692.54	1794.02
692.73	1593.32
692.92	1765.35
693.11	1687.53
693.30	1753.06
693.49	1615.85
693.68	1714.15
693.87	1632.23
694.06	1685.48
694.25	1685.48
694.44	1683.43
694.63	1667.05
694.82	1683.43
695.01	1712.10
695.20	1802.21
695.39	1624.04
695.58	1638.38
695.77	1611.75
695.96	1710.05
696.15	1658.85
696.34	1699.81
696.53	1701.86
696.72	1619.94
696.91	1705.96
697.10	1728.49
697.29	1595.37
697.48	1857.51
697.67	1773.54
697.86	1746.92
698.05	1640.42
698.24	1744.87
698.43	1662.95
698.62	1777.64
698.81	1669.09
699.00	1697.77
699.19	1732.58
699.38	1722.34
699.57	1591.27
699.76	1708.01
699.95	1619.94
700.14	1708.01
700.32	1748.97
700.51	1714.15
700.70	1646.57
700.89	1863.65
701.08	1751.01
701.27	1599.46
701.46	1826.79
701.65	1691.62
701.84	1634.28
702.03	1673.19
702.22	1755.11
702.41	1757.16
702.60	1748.97
702.79	1716.20
702.98	1568.74
703.17	1794.02
703.35	1708.01
703.54	1677.29
703.73	1660.90
703.92	1658.85
704.11	1740.77
704.30	1689.57
704.49	1736.68
704.68	1636.33
704.87	1613.80
705.06	1748.97
705.25	1703.91
705.43	1644.52
705.62	1667.05
705.81	1724.39
706.00	1617.90
706.19	1665.00
706.38	1621.99
706.57	1726.44
706.76	1646.57
706.95	1691.62
707.14	1763.30
707.32	1693.67
707.51	1632.23
707.70	1636.33
707.89	1734.63
708.08	1708.01
708.27	1679.33
708.46	1763.30
708.65	1587.18
708.84	1742.82
709.02	1634.28
709.21	1636.33
709.40	1728.49
709.59	1738.73
709.78	1667.05
709.97	1644.52
710.16	1681.38
710.34	1650.66
710.53	1796.07
710.72	1753.06
710.91	1689.57
711.10	1638.38
711.29	1640.42
711.48	1699.81
711.66	1691.62
711.85	1703.91
712.04	1697.77
712.23	1624.04
712.42	1748.97
712.61	1748.97
712.80	1658.85
712.98	1658.85
713.17	1636.33
713.36	1757.16
713.55	1806.31
713.74	1705.96
713.93	1855.46
714.11	1640.42
714.30	1519.59
714.49	1740.77
714.68	1703.91
714.87	1671.14
715.06	1880.04
715.24	1738.73
715.43	1662.95
715.62	1593.32
715.81	1699.81
716.00	1665.00
716.18	1667.05
716.37	1632.23
716.56	1658.85
716.75	1632.23
716.94	1667.05
717.12	1732.58
717.31	1667.05
717.50	1617.90
717.69	1632.23
717.88	1660.90
718.06	1703.91
718.25	1720.29
718.44	1578.98
718.63	1730.53
718.82	1603.56
719.00	1689.57
719.19	1857.51
719.38	1656.81
719.57	1685.48
719.76	1763.30
719.94	1660.90
720.13	1708.01
720.32	1812.45
720.51	1691.62
720.69	1691.62
720.88	1746.92
721.07	1703.91
721.26	1724.39
721.44	1759.21
721.63	1732.58
721.82	1755.11
722.01	1677.29
722.20	1609.70
722.38	1691.62
722.57	1585.13
722.76	1630.18
722.95	1572.84
723.13	1642.47
723.32	1683.43
723.51	1695.72
723.70	1705.96
723.88	1763.30
724.07	1572.84
724.26	1687.53
724.44	1644.52
724.63	1675.24
724.82	1732.58
725.01	1691.62
725.19	1687.53
725.38	1617.90
725.57	1699.81
725.76	1724.39
725.94	1652.71
726.13	1613.80
726.32	1638.38
726.51	1607.66
726.69	1619.94
726.88	1576.94
727.07	1691.62
727.25	1646.57
727.44	1591.27
727.63	1613.80
727.82	1642.47
728.00	1695.72
728.19	1675.24
728.38	1628.14
728.56	1683.43
728.75	1724.39
728.94	1701.86
729.12	1738.73
729.31	1650.66
729.50	1660.90
729.69	1705.96
729.87	1730.53
730.06	1720.29
730.25	1605.61
730.43	1755.11
730.62	1671.14
730.81	1660.90
730.99	1617.90
731.18	1667.05
731.37	1632.23
731.55	1720.29
731.74	1732.58
731.93	1691.62
732.11	1753.06
732.30	1701.86
732.49	1662.95
732.67	1642.47
732.86	1601.51
733.05	1642.47
733.23	1722.34
733.42	1621.99
733.61	1687.53
733.79	1642.47
733.98	1689.57
734.17	1630.18
734.35	1724.39
734.54	1605.61
734.73	1746.92
734.91	1552.36
735.10	1724.39
735.29	1714.15
735.47	1632.23
735.66	1621.99
735.84	1665.00
736.03	1642.47
736.22	1697.77
736.40	1646.57
736.59	1568.74
736.78	1587.18
736.96	1638.38
737.15	1765.35
737.33	1703.91
737.52	1634.28
737.71	1789.92
737.89	1687.53
738.08	1630.18
738.27	1679.33
738.45	1691.62
738.64	1667.05
738.82	1636.33
739.01	1656.81
739.20	1734.63
739.38	1691.62
739.57	1708.01
739.75	1718.25
739.94	1759.21
740.13	1607.66
740.31	1744.87
740.50	1662.95
740.68	1562.60
740.87	1632.23
741.06	1746.92
741.24	1746.92
741.43	1599.46
741.61	1677.29
741.80	1632.23
741.99	1583.08
742.17	1767.40
742.36	1658.85
742.54	1726.44
742.73	1728.49
742.91	1642.47
743.10	1716.20
743.29	1677.29
743.47	1687.53
743.66	1607.66
743.84	1638.38
744.03	1755.11
744.21	1544.17
744.40	1679.33
744.59	1691.62
744.77	1675.24
744.96	1665.00
745.14	1708.01
745.33	1724.39
745.51	1738.73
745.70	1673.19
745.88	1748.97
746.07	1716.20
746.26	1632.23
746.44	1714.15
746.63	1599.46
746.81	1736.68
747.00	1654.76
747.18	1681.38
747.37	1615.85
747.55	1730.53
747.74	1976.29
747.92	1712.10
748.11	1759.21
748.29	1650.66
748.48	1699.81
748.66	1679.33
748.85	1728.49
749.03	1693.67
749.22	1609.70
749.41	1540.07
749.59	1730.53
749.78	1681.38
749.96	1621.99
750.15	1687.53
750.33	1693.67
750.52	1710.05
750.70	1665.00
750.89	1722.34
751.07	1558.50
751.26	1763.30
751.44	1603.56
751.63	1693.67
751.81	1734.63
752.00	1585.13
752.18	1728.49
752.37	1699.81
752.55	1634.28
752.74	1587.18
752.92	1679.33
753.10	1640.42
753.29	1687.53
753.47	1671.14
753.66	1568.74
753.84	1656.81
754.03	1572.84
754.21	1722.34
754.40	1601.51
754.58	1728.49
754.77	1705.96
754.95	1744.87
755.14	1679.33
755.32	1591.27
755.51	1581.03
755.69	1712.10
755.88	1656.81
756.06	1697.77
756.24	1624.04
756.43	1693.67
756.61	1736.68
756.80	1585.13
756.98	1683.43
757.17	1691.62
757.35	1777.64
757.54	1654.76
757.72	1626.09
757.90	1626.09
758.09	1646.57
758.27	1624.04
758.46	1591.27
758.64	1703.91
758.83	1691.62
759.01	1767.40
759.19	1708.01
759.38	1626.09
759.56	1705.96
759.75	1644.52
759.93	1744.87
760.12	1601.51
760.30	1658.85
760.48	1632.23
760.67	1697.77
760.85	1699.81
761.04	1601.51
761.22	1738.73
761.40	1640.42
761.59	1644.52
761.77	1718.25
761.96	1691.62
762.14	1691.62
762.32	1708.01
762.51	1656.81
762.69	1679.33
762.88	1675.24
763.06	1642.47
763.24	1597.42
763.43	1650.66
763.61	1660.90
763.80	1685.48
763.98	1691.62
764.16	1574.89
764.35	1603.56
764.53	1615.85
764.72	1650.66
764.90	1699.81
765.08	1693.67
765.27	1746.92
765.45	1613.80
765.63	1611.75
765.82	1732.58
766.00	1621.99
766.18	1617.90
766.37	1605.61
766.55	1675.24
766.74	1722.34
766.92	1597.42
767.10	1562.60
767.29	1742.82
767.47	1619.94
767.65	1751.01
767.84	1755.11
768.02	1654.76
768.20	1667.05
768.39	1654.76
768.57	1607.66
768.75	1634.28
768.94	1837.03
769.12	1630.18
769.30	1650.66
769.49	1621.99
769.67	1642.47
769.85	1765.35
770.04	1576.94
770.22	1644.52
770.40	1632.23
770.59	1695.72
770.77	1796.07
770.95	1716.20
771.14	1714.15
771.32	1605.61
771.50	1683.43
771.69	1593.32
771.87	1642.47
772.05	1624.04
772.24	1583.08
772.42	1787.88
772.60	1689.57
772.78	1771.49
772.97	1503.21
773.15	1718.25
773.33	1650.66
773.52	1687.53
773.70	1708.01
773.88	1634.28
774.07	1542.12
774.25	1591.27
774.43	1683.43
774.61	1650.66
774.80	1634.28
774.98	1722.34
775.16	1593.32
775.34	1710.05
775.53	1775.59
775.71	1669.09
775.89	1718.25
776.08	1689.57
776.26	1656.81
776.44	1722.34
776.62	1675.24
776.81	1638.38
776.99	1697.77
777.17	1636.33
777.35	1744.87
777.54	1736.68
777.72	1720.29
777.90	1605.61
778.08	1667.05
778.27	1628.14
778.45	1548.26
778.63	1683.43
778.81	1671.14
779.00	1724.39
779.18	1632.23
779.36	1769.44
779.54	1630.18
779.73	1675.24
779.91	1654.76
780.09	1589.22
780.27	1654.76
780.46	1677.29
780.64	1621.99
780.82	1697.77
781.00	1597.42
781.19	1654.76
781.37	1621.99
781.55	1765.35
781.73	1566.70
781.91	1660.90
782.10	1710.05
782.28	1751.01
782.46	1689.57
782.64	1673.19
782.82	1671.14
783.01	1634.28
783.19	1679.33
783.37	1691.62
783.55	1613.80
783.74	1638.38
783.92	1597.42
784.10	1712.10
784.28	1667.05
784.46	1591.27
784.64	1601.51
784.83	1767.40
785.01	1761.25
785.19	1718.25
785.37	1705.96
785.55	1701.86
785.74	1662.95
785.92	1607.66
786.10	1667.05
786.28	1761.25
786.46	1697.77
786.64	1710.05
786.83	1624.04
787.01	1687.53
787.19	1685.48
787.37	1757.16
787.55	1605.61
787.74	1691.62
787.92	1703.91
788.10	1753.06
788.28	1621.99
788.46	1726.44
788.64	1779.68
788.82	1638.38
789.01	1587.18
789.19	1677.29
789.37	1730.53
789.55	1669.09
789.73	1617.90
789.91	1671.14
790.09	1691.62
790.28	1566.70
790.46	1572.84
790.64	1748.97
790.82	1605.61
791.00	1648.61
791.18	1660.90
791.36	1638.38
791.55	1679.33
791.73	1632.23
791.91	1634.28
792.09	1705.96
792.27	1578.98
792.45	1689.57
792.63	1728.49
792.81	1650.66
793.00	1732.58
793.18	1685.48
793.36	1753.06
793.54	1708.01
793.72	1630.18
793.90	1597.42
794.08	1605.61
794.26	1712.10
794.44	1593.32
794.62	1626.09
794.81	1607.66
794.99	1763.30
795.17	1662.95
795.35	1601.51
795.53	1765.35
795.71	1646.57
795.89	1642.47
796.07	1677.29
796.25	1628.14
796.43	1662.95
796.61	1710.05
796.80	1642.47
796.98	1658.85
797.16	1665.00
797.34	1626.09
797.52	1650.66
797.70	1816.55
797.88	1738.73
798.06	1613.80
798.24	1720.29
798.42	1644.52
798.60	1705.96
798.78	1726.44
798.96	1732.58
799.14	1615.85
799.32	1736.68
799.51	1621.99
799.69	1736.68
799.87	1710.05
800.05	1640.42
800.23	1542.12
800.41	1662.95
800.59	1662.95
800.77	1632.23
800.95	1601.51
801.13	1695.72
801.31	1642.47
801.49	1779.68
801.67	1712.10
801.85	1634.28
802.03	1650.66
802.21	1671.14
802.39	1562.60
802.57	1523.69
802.75	1687.53
802.93	1738.73
803.11	1609.70
803.29	1716.20
803.47	1669.09
803.65	1626.09
803.83	1642.47
804.01	1679.33
804.19	1615.85
804.37	1609.70
804.55	1640.42
804.73	1691.62
804.91	1587.18
805.09	1660.90
805.27	1699.81
805.45	1681.38
805.63	1628.14
805.81	1679.33
805.99	1736.68
806.17	1624.04
806.35	1644.52
806.53	1642.47
806.71	1665.00
806.89	1587.18
807.07	1716.20
807.25	1722.34
807.43	1626.09
807.61	1720.29
807.79	1777.64
807.97	1630.18
808.15	1708.01
808.33	1759.21
808.51	1761.25
808.69	1689.57
808.87	1595.37
809.05	1662.95
809.23	1642.47
809.41	1611.75
809.59	1613.80
809.77	1712.10
809.95	1646.57
810.13	1697.77
810.31	1679.33
810.49	1708.01
810.67	1691.62
810.84	1628.14
811.02	1615.85
811.20	1564.65
811.38	1720.29
811.56	1615.85
811.74	1736.68
811.92	1628.14
812.10	1638.38
812.28	1800.16
812.46	1646.57
812.64	1607.66
812.82	1542.12
813.00	1681.38
813.18	1628.14
813.36	1689.57
813.53	1603.56
813.71	1785.83
813.89	1710.05
814.07	1601.51
814.25	1732.58
814.43	1708.01
814.61	1605.61
814.79	1648.61
814.97	1679.33
815.15	1695.72
815.33	1540.07
815.50	1705.96
815.68	1581.03
815.86	1708.01
816.04	1753.06
816.22	1591.27
816.40	1648.61
816.58	1626.09
816.76	1646.57
816.94	1654.76
817.11	1667.05
817.29	1648.61
817.47	1609.70
817.65	1634.28
817.83	1681.38
818.01	1581.03
818.19	1562.60
818.37	1662.95
818.54	1755.11
818.72	1691.62
818.90	1652.71
819.08	1626.09
819.26	1617.90
819.44	1748.97
819.62	1636.33
819.80	1583.08
819.97	1757.16
820.15	1624.04
820.33	1589.22
820.51	1611.75
820.69	1669.09
820.87	1699.81
821.05	1794.02
821.22	1626.09
821.40	1683.43
821.58	1712.10
821.76	1673.19
821.94	1615.85
822.12	1660.90
822.29	1679.33
822.47	1679.33
822.65	1679.33
822.83	1671.14
823.01	1689.57
823.19	1644.52
823.36	1630.18
823.54	1691.62
823.72	1681.38
823.90	1679.33
824.08	1611.75
824.25	1671.14
824.43	1650.66
824.61	1630.18
824.79	1710.05
824.97	1630.18
825.15	1697.77
825.32	1576.94
825.50	1810.40
825.68	1599.46
825.86	1738.73
826.04	1718.25
826.21	1794.02
826.39	1673.19
826.57	1722.34
826.75	1730.53
826.93	1677.29
827.10	1703.91
827.28	1650.66
827.46	1708.01
827.64	1796.07
827.81	1634.28
827.99	1560.55
828.17	1685.48
828.35	1583.08
828.53	1621.99
828.70	1722.34
828.88	1658.85
829.06	1654.76
829.24	1679.33
829.41	1617.90
829.59	1632.23
829.77	1671.14
829.95	1677.29
830.12	1646.57
830.30	1675.24
830.48	1667.05
830.66	1634.28
830.84	1658.85
831.01	1695.72
831.19	1595.37
831.37	1621.99
831.55	1601.51
831.72	1720.29
831.90	1761.25
832.08	1728.49
832.25	1671.14
832.43	1624.04
832.61	1755.11
832.79	1587.18
832.96	1701.86
833.14	1699.81
833.32	1765.35
833.50	1673.19
833.67	1722.34
833.85	1638.38
834.03	1628.14
834.20	1660.90
834.38	1785.83
834.56	1777.64
834.74	1562.60
834.91	1628.14
835.09	1785.83
835.27	1689.57
835.44	1632.23
835.62	1613.80
835.80	1691.62
835.98	1671.14
836.15	1669.09
836.33	1660.90
836.51	1540.07
836.68	1632.23
836.86	1621.99
837.04	1708.01
837.21	1714.15
837.39	1705.96
837.57	1742.82
837.75	1746.92
837.92	1628.14
838.10	1697.77
838.28	1621.99
838.45	1634.28
838.63	1646.57
838.81	1738.73
838.98	1683.43
839.16	1662.95
839.34	1634.28
839.51	1667.05
839.69	1570.79
839.87	1597.42
840.04	1785.83
840.22	1945.57
840.40	1697.77
840.57	1533.93
840.75	1681.38
840.93	1593.32
841.10	1691.62
841.28	1722.34
841.46	1665.00
841.63	1638.38
841.81	1568.74
841.98	1570.79
842.16	1798.12
842.34	1650.66
842.51	1490.92
842.69	1640.42
842.87	1693.67
843.04	1615.85
843.22	1589.22
843.40	1562.60
843.57	1632.23
843.75	1628.14
843.92	1687.53
844.10	1683.43
844.28	1646.57
844.45	1677.29
844.63	1683.43
844.81	1724.39
844.98	1728.49
845.16	1652.71
845.33	1736.68
845.51	1667.05
845.69	1722.34
845.86	1783.78
846.04	1595.37
846.21	1619.94
846.39	1593.32
846.57	1550.31
846.74	1478.63
846.92	1728.49
847.09	1611.75
847.27	1626.09
847.45	1667.05
847.62	1632.23
847.80	1656.81
847.97	1634.28
848.15	1601.51
848.32	1593.32
848.50	1593.32
848.68	1585.13
848.85	1667.05
849.03	1581.03
849.20	1636.33
849.38	1593.32
849.56	1636.33
849.73	1650.66
849.91	1683.43
850.08	1658.85
850.26	1572.84
850.43	1521.64
850.61	1677.29
850.78	1503.21
850.96	1667.05
851.14	1531.88
851.31	1759.21
851.49	1677.29
851.66	1703.91
851.84	1576.94
852.01	1613.80
852.19	1568.74
852.36	1652.71
852.54	1714.15
852.71	1660.90
852.89	1730.53
853.07	1630.18
853.24	1621.99
853.42	1613.80
853.59	1585.13
853.77	1615.85
853.94	1697.77
854.12	1769.44
854.29	1613.80
854.47	1656.81
854.64	1665.00
854.82	1714.15
854.99	1648.61
855.17	1574.89
855.34	1599.46
855.52	1669.09
855.69	1744.87
855.87	1628.14
856.04	1642.47
856.22	1753.06
856.39	1605.61
856.57	1681.38
856.74	1644.52
856.92	1740.77
857.09	1617.90
857.27	1669.09
857.44	1662.95
857.62	1665.00
857.79	1699.81
857.97	1697.77
858.14	1605.61
858.32	1603.56
858.49	1605.61
858.67	1658.85
858.84	1570.79
859.02	1714.15
859.19	1642.47
859.37	1576.94
859.54	1619.94
859.72	1640.42
859.89	1691.62
860.06	1597.42
860.24	1611.75
860.41	1722.34
860.59	1566.70
860.76	1646.57
860.94	1501.16
861.11	1673.19
861.29	1732.58
861.46	1615.85
861.64	1642.47
861.81	1748.97
861.98	1533.93
862.16	1687.53
862.33	1593.32
862.51	1683.43
862.68	1587.18
862.86	1630.18
863.03	1562.60
863.21	1632.23
863.38	1595.37
863.55	1578.98
863.73	1667.05
863.90	1658.85
864.08	1599.46
864.25	1673.19
864.43	1667.05
864.60	1619.94
864.77	1585.13
864.95	1693.67
865.12	1583.08
865.30	1636.33
865.47	1673.19
865.64	1728.49
865.82	1677.29
865.99	1765.35
866.17	1654.76
866.34	1736.68
866.51	1556.46
866.69	1677.29
866.86	1714.15
867.04	1748.97
867.21	1568.74
867.38	1597.42
867.56	1619.94
867.73	1644.52
867.91	1617.90
868.08	1634.28
868.25	1675.24
868.43	1583.08
868.60	1615.85
868.78	1574.89
868.95	1617.90
869.12	1640.42
869.30	1699.81
869.47	1685.48
869.64	1634.28
869.82	1644.52
869.99	1665.00
870.16	1705.96
870.34	1658.85
870.51	1720.29
870.69	1540.07
870.86	1689.57
871.03	1656.81
871.21	1632.23
871.38	1714.15
871.55	1632.23
871.73	1613.80
871.90	1681.38
872.07	1624.04
872.25	1546.22
872.42	1572.84
872.59	1538.02
872.77	1638.38
872.94	1589.22
873.11	1636.33
873.29	1705.96
873.46	1574.89
873.63	1708.01
873.81	1531.88
873.98	1714.15
874.15	1585.13
874.33	1665.00
874.50	1652.71
874.67	1677.29
874.85	1650.66
875.02	1617.90
875.19	1554.41
875.37	1673.19
875.54	1560.55
875.71	1593.32
875.88	1691.62
876.06	1669.09
876.23	1656.81
876.40	1705.96
876.58	1632.23
876.75	1658.85
876.92	1630.18
877.10	1654.76
877.27	1671.14
877.44	1665.00
877.61	1542.12
877.79	1628.14
877.96	1607.66
878.13	1632.23
878.31	1630.18
878.48	1665.00
878.65	1601.51
878.82	1658.85
879.00	1687.53
879.17	1658.85
879.34	1603.56
879.51	1538.02
879.69	1658.85
879.86	1548.26
880.03	1626.09
880.21	1617.90
880.38	1691.62
880.55	1691.62
880.72	1626.09
880.90	1585.13
881.07	1628.14
881.24	1640.42
881.41	1685.48
881.59	1673.19
881.76	1693.67
881.93	1671.14
882.10	1650.66
882.28	1642.47
882.45	1662.95
882.62	1665.00
882.79	1718.25
882.96	1630.18
883.14	1685.48
883.31	1675.24
883.48	1632.23
883.65	1681.38
883.83	1630.18
884.00	1726.44
884.17	1603.56
884.34	1693.67
884.51	1740.77
884.69	1693.67
884.86	1701.86
885.03	1619.94
885.20	1585.13
885.38	1734.63
885.55	1607.66
885.72	1683.43
885.89	1568.74
886.06	1638.38
886.24	1562.60
886.41	1648.61
886.58	1638.38
886.75	1662.95
886.92	1658.85
887.10	1599.46
887.27	1585.13
887.44	1673.19
887.61	1773.54
887.78	1724.39
887.95	1732.58
888.13	1658.85
888.30	1568.74
888.47	1628.14
888.64	1689.57
888.81	1703.91
888.99	1591.27
889.16	1607.66
889.33	1642.47
889.50	1634.28
889.67	1636.33
889.84	1683.43
890.01	1765.35
890.19	1705.96
890.36	1710.05
890.53	1677.29
890.70	1626.09
890.87	1679.33
891.04	1621.99
891.22	1667.05
891.39	1632.23
891.56	1699.81
891.73	1677.29
891.90	1654.76
892.07	1556.46
892.24	1650.66
892.42	1646.57
892.59	1624.04
892.76	1679.33
892.93	1558.50
893.10	1626.09
893.27	1638.38
893.44	1593.32
893.61	1652.71
893.79	1640.42
893.96	1675.24
894.13	1673.19
894.30	1568.74
894.47	1640.42
894.64	1673.19
894.81	1593.32
894.98	1632.23
895.15	1681.38
895.33	1646.57
895.50	1548.26
895.67	1648.61
895.84	1716.20
896.01	1642.47
896.18	1583.08
896.35	1705.96
896.52	1591.27
896.69	1619.94
896.86	1687.53
897.04	1746.92
897.21	1660.90
897.38	1624.04
897.55	1626.09
897.72	1652.71
897.89	1626.09
898.06	1697.77
898.23	1615.85
898.40	1671.14
898.57	1636.33
898.74	1662.95
898.91	1640.42
899.08	1642.47
899.26	1667.05
899.43	1730.53
899.60	1654.76
899.77	1679.33
899.94	1652.71
900.11	1583.08
900.28	1615.85
900.45	1695.72
900.62	1583.08
900.79	1722.34
900.96	1648.61
901.13	1624.04
901.30	1636.33
901.47	1562.60
901.64	1597.42
901.81	1746.92
901.98	1585.13
902.15	1701.86
902.32	1568.74
902.49	1669.09
902.66	1656.81
902.83	1689.57
903.01	1648.61
903.18	1624.04
903.35	1599.46
903.52	1644.52
903.69	1662.95
903.86	1634.28
904.03	1726.44
904.20	1734.63
904.37	1650.66
904.54	1531.88
904.71	1679.33
904.88	1646.57
905.05	1583.08
905.22	1587.18
905.39	1597.42
905.56	1452.01
905.73	1593.32
905.90	1617.90
906.07	1576.94
906.24	1683.43
906.41	1660.90
906.58	1734.63
906.75	1593.32
906.92	1533.93
907.09	1665.00
907.26	1611.75
907.43	1554.41
907.60	1656.81
907.77	1583.08
907.93	1640.42
908.10	1687.53
908.27	1763.30
908.44	1593.32
908.61	1658.85
908.78	1658.85
908.95	1650.66
909.12	1648.61
909.29	1665.00
909.46	1660.90
909.63	1779.68
909.80	1679.33
909.97	1656.81
910.14	1593.32
910.31	1617.90
910.48	1591.27
910.65	1658.85
910.82	1603.56
910.99	1652.71
911.16	1687.53
911.33	1619.94
911.50	1656.81
911.66	1626.09
911.83	1576.94
912.00	1617.90
912.17	1556.46
912.34	1560.55
912.51	1662.95
912.68	1626.09
912.85	1716.20
913.02	1640.42
913.19	1632.23
913.36	1634.28
913.53	1779.68
913.70	1605.61
913.86	1812.45
914.03	1705.96
914.20	1585.13
914.37	1658.85
914.54	1632.23
914.71	1648.61
914.88	1744.87
915.05	1550.31
915.22	1621.99
915.39	1683.43
915.55	1679.33
915.72	1574.89
915.89	1529.83
916.06	1611.75
916.23	1669.09
916.40	1642.47
916.57	1583.08
916.74	1615.85
916.91	1632.23
917.07	1583.08
917.24	1564.65
917.41	1691.62
917.58	1652.71
917.75	1644.52
917.92	1533.93
918.09	1554.41
918.26	1630.18
918.42	1550.31
918.59	1646.57
918.76	1617.90
918.93	1523.69
919.10	1585.13
919.27	1646.57
919.44	1787.88
919.60	1734.63
919.77	1634.28
919.94	1587.18
920.11	1755.11
920.28	1691.62
920.45	1658.85
920.61	1566.70
920.78	1660.90
920.95	1751.01
921.12	1648.61
921.29	1554.41
921.46	1632.23
921.62	1562.60
921.79	1689.57
921.96	1689.57
922.13	1595.37
922.30	1630.18
922.47	1615.85
922.63	1650.66
922.80	1687.53
922.97	1687.53
923.14	1507.30
923.31	1583.08
923.47	1615.85
923.64	1775.59
923.81	1507.30
923.98	1724.39
924.15	1630.18
924.32	1675.24
924.48	1574.89
924.65	1724.39
924.82	1593.32
924.99	1705.96
925.15	1576.94
925.32	1720.29
925.49	1626.09
925.66	1656.81
925.83	1621.99
925.99	1583.08
926.16	1726.44
926.33	1642.47
926.50	1525.74
926.67	1617.90
926.83	1574.89
927.00	1671.14
927.17	1691.62
927.34	1634.28
927.50	1705.96
927.67	1730.53
927.84	1644.52
928.01	1679.33
928.17	1699.81
928.34	1593.32
928.51	1533.93
928.68	1617.90
928.84	1621.99
929.01	1634.28
929.18	1595.37
929.35	1605.61
929.51	1705.96
929.68	1634.28
929.85	1667.05
930.02	1615.85
930.18	1585.13
930.35	1621.99
930.52	1583.08
930.69	1683.43
930.85	1705.96
931.02	1570.79
931.19	1640.42
931.36	1654.76
931.52	1581.03
931.69	1574.89
931.86	1613.80
932.02	1673.19
932.19	1581.03
932.36	1675.24
932.53	1638.38
932.69	1585.13
932.86	1675.24
933.03	1581.03
933.19	1591.27
933.36	1685.48
933.53	1777.64
933.70	1597.42
933.86	1738.73
934.03	1703.91
934.20	1548.26
934.36	1644.52
934.53	1568.74
934.70	1636.33
934.86	1626.09
935.03	1587.18
935.20	1591.27
935.36	1611.75
935.53	1533.93
935.70	1611.75
935.86	1654.76
936.03	1581.03
936.20	1538.02
936.36	1595.37
936.53	1718.25
936.70	1648.61
936.86	1837.03
937.03	1732.58
937.20	1640.42
937.36	1724.39
937.53	1533.93
937.70	1589.22
937.86	1605.61
938.03	1699.81
938.20	1699.81
938.36	1644.52
938.53	1714.15
938.70	1513.45
938.86	1626.09
939.03	1683.43
939.20	1583.08
939.36	1646.57
939.53	1603.56
939.70	1837.03
939.86	1615.85
940.03	1648.61
940.19	1570.79
940.36	1640.42
940.53	1632.23
940.69	1673.19
940.86	1689.57
941.03	1615.85
941.19	1556.46
941.36	1683.43
941.52	1628.14
941.69	1646.57
941.86	1677.29
942.02	1646.57
942.19	1699.81
942.35	1701.86
942.52	1675.24
942.69	1609.70
942.85	1699.81
943.02	1497.07
943.18	1609.70
943.35	1593.32
943.52	1652.71
943.68	1484.78
943.85	1617.90
944.01	1572.84
944.18	1675.24
944.35	1669.09
944.51	1665.00
944.68	1607.66
944.84	1652.71
945.01	1583.08
945.17	1699.81
945.34	1646.57
945.51	1652.71
945.67	1638.38
945.84	1609.70
946.00	1548.26
946.17	1671.14
946.33	1646.57
946.50	1722.34
946.67	1642.47
946.83	1646.57
947.00	1611.75
947.16	1581.03
947.33	1636.33
947.49	1654.76
947.66	1556.46
947.82	1667.05
947.99	1591.27
948.16	1683.43
948.32	1662.95
948.49	1687.53
948.65	1624.04
948.82	1716.20
948.98	1621.99
949.15	1576.94
949.31	1681.38
949.48	1603.56
949.64	1587.18
949.81	1642.47
949.97	1581.03
950.14	1613.80
950.30	1560.55
950.47	1626.09
950.63	1628.14
950.80	1722.34
950.96	1570.79
951.13	1658.85
951.30	1568.74
951.46	1687.53
951.63	1712.10
951.79	1628.14
951.96	1652.71
952.12	1538.02
952.29	1656.81
952.45	1609.70
952.62	1730.53
952.78	1591.27
952.94	1611.75
953.11	1589.22
953.27	1585.13
953.44	1705.96
953.60	1603.56
953.77	1714.15
953.93	1691.62
954.10	1613.80
954.26	1626.09
954.43	1632.23
954.59	1638.38
954.76	1748.97
954.92	1679.33
955.09	1599.46
955.25	1533.93
955.42	1609.70
955.58	1714.15
955.75	1634.28
955.91	1546.22
956.07	1638.38
956.24	1662.95
956.40	1691.62
956.57	1667.05
956.73	1540.07
956.90	1646.57
957.06	1630.18
957.23	1624.04
957.39	1636.33
957.56	1621.99
957.72	1464.30
957.88	1507.30
958.05	1759.21
958.21	1640.42
958.38	1611.75
958.54	1665.00
958.71	1798.12
958.87	1597.42
959.03	1556.46
959.20	1675.24
959.36	1578.98
959.53	1591.27
959.69	1470.44
959.85	1617.90
960.02	1615.85
960.18	1642.47
960.35	1626.09
960.51	1693.67
960.68	1544.17
960.84	1607.66
961.00	1587.18
961.17	1644.52
961.33	1634.28
961.50	1595.37
961.66	1621.99
961.82	1609.70
961.99	1624.04
962.15	1562.60
962.31	1658.85
962.48	1642.47
962.64	1658.85
962.81	1652.71
962.97	1617.90
963.13	1679.33
963.30	1669.09
963.46	1581.03
963.62	1611.75
963.79	1644.52
963.95	1640.42
964.12	1560.55
964.28	1626.09
964.44	1644.52
964.61	1677.29
964.77	1667.05
964.93	1820.64
965.10	1640.42
965.26	1609.70
965.42	1683.43
965.59	1613.80
965.75	1603.56
965.92	1621.99
966.08	1675.24
966.24	1636.33
966.41	1546.22
966.57	1677.29
966.73	1619.94
966.90	1677.29
967.06	1658.85
967.22	1570.79
967.39	1665.00
967.55	1626.09
967.71	1595.37
967.88	1583.08
968.04	1626.09
968.20	1572.84
968.37	1583.08
968.53	1574.89
968.69	1601.51
968.85	1638.38
969.02	1632.23
969.18	1634.28
969.34	1689.57
969.51	1730.53
969.67	1617.90
969.83	1628.14
970.00	1734.63
970.16	1632.23
970.32	1640.42
970.48	1763.30
970.65	1597.42
970.81	1642.47
970.97	1675.24
971.14	1486.83
971.30	1669.09
971.46	1548.26
971.63	1644.52
971.79	1732.58
971.95	1642.47
972.11	1585.13
972.28	1591.27
972.44	1607.66
972.60	1548.26
972.76	1699.81
972.93	1630.18
973.09	1624.04
973.25	1609.70
973.42	1640.42
973.58	1732.58
973.74	1632.23
973.90	1757.16
974.07	1634.28
974.23	1634.28
974.39	1656.81
974.55	1632.23
974.72	1669.09
974.88	1574.89
975.04	1683.43
975.20	1626.09
975.37	1687.53
975.53	1617.90
975.69	1617.90
975.85	1611.75
976.01	1662.95
976.18	1624.04
976.34	1611.75
976.50	1683.43
976.66	1599.46
976.83	1654.76
976.99	1605.61
977.15	1611.75
977.31	1576.94
977.47	1681.38
977.64	1667.05
977.80	1564.65
977.96	1640.42
978.12	1581.03
978.29	1699.81
978.45	1533.93
978.61	1634.28
978.77	1658.85
978.93	1525.74
979.10	1609.70
979.26	1650.66
979.42	1650.66
979.58	1513.45
979.74	1613.80
979.91	1654.76
980.07	1613.80
980.23	1640.42
980.39	1617.90
980.55	1558.50
980.71	1560.55
980.88	1552.36
981.04	1597.42
981.20	1640.42
981.36	1689.57
981.52	1642.47
981.68	1578.98
981.85	1583.08
982.01	1617.90
982.17	1581.03
982.33	1621.99
982.49	1665.00
982.65	1535.98
982.82	1581.03
982.98	1624.04
983.14	1568.74
983.30	1628.14
983.46	1665.00
983.62	1599.46
983.79	1560.55
983.95	1601.51
984.11	1578.98
984.27	1562.60
984.43	1576.94
984.59	1581.03
984.75	1656.81
984.91	1648.61
985.08	1669.09
985.24	1560.55
985.40	1581.03
985.56	1617.90
985.72	1695.72
985.88	1675.24
986.04	1624.04
986.20	1591.27
986.37	1638.38
986.53	1570.79
986.69	1603.56
986.85	1546.22
987.01	1660.90
987.17	1675.24
987.33	1574.89
987.49	1583.08
987.65	1640.42
987.82	1578.98
987.98	1568.74
988.14	1591.27
988.30	1621.99
988.46	1560.55
988.62	1667.05
988.78	1597.42
988.94	1646.57
989.10	1669.09
989.26	1628.14
989.42	1681.38
989.59	1560.55
989.75	1642.47
989.91	1634.28
990.07	1568.74
990.23	1609.70
990.39	1654.76
990.55	1642.47
990.71	1599.46
990.87	1642.47
991.03	1658.85
991.19	1599.46
991.35	1581.03
991.51	1562.60
991.67	1644.52
991.83	1593.32
992.00	1544.17
992.16	1621.99
992.32	1736.68
992.48	1679.33
992.64	1568.74
992.80	1712.10
992.96	1538.02
993.12	1603.56
993.28	1699.81
993.44	1578.98
993.60	1669.09
993.76	1556.46
993.92	1681.38
994.08	1576.94
994.24	1605.61
994.40	1611.75
994.56	1646.57
994.72	1591.27
994.88	1542.12
995.04	1632.23
995.20	1667.05
995.36	1593.32
995.52	1599.46
995.68	1593.32
995.84	1585.13
996.00	1736.68
996.16	1634.28
996.32	1568.74
996.48	1552.36
996.64	1640.42
996.80	1562.60
996.96	1658.85
997.12	1585.13
997.28	1578.98
997.44	1548.26
997.60	1591.27
997.76	1591.27
997.92	1628.14
998.08	1679.33
998.24	1513.45
998.40	1605.61
998.56	1632.23
998.72	1546.22
998.88	1568.74
999.04	1566.70
999.20	1681.38
999.36	1560.55
999.52	1714.15
999.68	1636.33
999.84	1652.71
1000.00	1621.99
1000.16	1728.49
1000.32	1572.84
1000.48	1712.10
1000.64	1605.61
1000.80	1583.08
1000.95	1595.37
1001.11	1599.46
1001.27	1527.78
1001.43	1665.00
1001.59	1568.74
1001.75	1583.08
1001.91	1607.66
1002.07	1611.75
1002.23	1574.89
1002.39	1560.55
1002.55	1652.71
1002.71	1660.90
1002.87	1558.50
1003.03	1548.26
1003.19	1566.70
1003.34	1744.87
1003.50	1624.04
1003.66	1671.14
1003.82	1669.09
1003.98	1630.18
1004.14	1630.18
1004.30	1587.18
1004.46	1599.46
1004.62	1601.51
1004.78	1593.32
1004.94	1601.51
1005.09	1722.34
1005.25	1693.67
1005.41	1587.18
1005.57	1683.43
1005.73	1687.53
1005.89	1593.32
1006.05	1619.94
1006.21	1675.24
1006.37	1515.50
1006.52	1591.27
1006.68	1601.51
1006.84	1716.20
1007.00	1538.02
1007.16	1652.71
1007.32	1634.28
1007.48	1636.33
1007.64	1591.27
1007.79	1581.03
1007.95	1611.75
1008.11	1644.52
1008.27	1662.95
1008.43	1617.90
1008.59	1632.23
1008.75	1726.44
1008.91	1656.81
1009.06	1597.42
1009.22	1669.09
1009.38	1607.66
1009.54	1593.32
1009.70	1560.55
1009.86	1712.10
1010.01	1701.86
1010.17	1568.74
1010.33	1677.29
1010.49	1617.90
1010.65	1675.24
1010.81	1607.66
1010.96	1628.14
1011.12	1613.80
1011.28	1560.55
1011.44	1718.25
1011.60	1617.90
1011.76	1585.13
1011.91	1708.01
1012.07	1523.69
1012.23	1511.40
1012.39	1535.98
1012.55	1701.86
1012.71	1650.66
1012.86	1578.98
1013.02	1638.38
1013.18	1609.70
1013.34	1585.13
1013.50	1640.42
1013.65	1644.52
1013.81	1574.89
1013.97	1587.18
1014.13	1562.60
1014.29	1535.98
1014.44	1720.29
1014.60	1687.53
1014.76	1638.38
1014.92	1630.18
1015.07	1642.47
1015.23	1593.32
1015.39	1548.26
1015.55	1609.70
1015.71	1607.66
1015.86	1499.11
1016.02	1621.99
1016.18	1523.69
1016.34	1703.91
1016.49	1570.79
1016.65	1716.20
1016.81	1591.27
1016.97	1626.09
1017.12	1722.34
1017.28	1601.51
1017.44	1515.50
1017.60	1576.94
1017.75	1587.18
1017.91	1621.99
1018.07	1587.18
1018.23	1662.95
1018.38	1609.70
1018.54	1679.33
1018.70	1626.09
1018.86	1589.22
1019.01	1593.32
1019.17	1640.42
1019.33	1699.81
1019.49	1617.90
1019.64	1689.57
1019.80	1656.81
1019.96	1683.43
1020.12	1558.50
1020.27	1581.03
1020.43	1538.02
1020.59	1683.43
1020.74	1699.81
1020.90	1632.23
1021.06	1703.91
1021.22	1652.71
1021.37	1662.95
1021.53	1535.98
1021.69	1597.42
1021.84	1484.78
1022.00	1632.23
1022.16	1560.55
1022.31	1628.14
1022.47	1632.23
1022.63	1714.15
1022.79	1531.88
1022.94	1581.03
1023.10	1615.85
1023.26	1609.70
1023.41	1583.08
1023.57	1667.05
1023.73	1640.42
1023.88	1564.65
1024.04	1550.31
1024.20	1558.50
1024.35	1630.18
1024.51	1658.85
1024.67	1642.47
1024.82	1695.72
1024.98	1548.26
1025.14	1679.33
1025.29	1630.18
1025.45	1667.05
1025.61	1519.59
1025.76	1634.28
1025.92	1642.47
1026.08	1621.99
1026.23	1640.42
1026.39	1654.76
1026.55	1542.12
1026.70	1560.55
1026.86	1554.41
1027.02	1646.57
1027.17	1681.38
1027.33	1638.38
1027.48	1638.38
1027.64	1552.36
1027.80	1578.98
1027.95	1636.33
1028.11	1593.32
1028.27	1699.81
1028.42	1675.24
1028.58	1617.90
1028.73	1671.14
1028.89	1478.63
1029.05	1761.25
1029.20	1583.08
>>>>>End Processed Spectral Data<<<<<
