SpectraSuite Data File
++++++++++++++++++++++++++++++++++++
Date: Fri Jun 02 14:52:22 CEST 2017
User: INFO_000
Dark Spectrum Present: No
Reference Spectrum Present: No
Number of Sampled Component Spectra: 1
Spectrometers: USB4H00879
Integration Time (usec): 80000 (USB4H00879)
Spectra Averaged: 1 (USB4H00879)
Boxcar Smoothing: 0 (USB4H00879)
Correct for Electrical Dark: No (USB4H00879)
Strobe/Lamp Enabled: No (USB4H00879)
Correct for Detector Non-linearity: No (USB4H00879)
Correct for Stray Light: No (USB4H00879)
Number of Pixels in Processed Spectrum: 3648
>>>>>Begin Processed Spectral Data<<<<<
345.13	1388.52
345.34	1388.52
345.56	1388.52
345.78	1228.78
345.99	1249.26
346.21	1757.16
346.42	1751.01
346.64	1636.33
346.86	1800.16
347.07	1638.38
347.29	1642.47
347.50	1576.94
347.72	1621.99
347.94	1746.92
348.15	1572.84
348.37	1595.37
348.59	1699.81
348.80	1701.86
349.02	1755.11
349.23	1789.92
349.45	1609.70
349.67	1736.68
349.88	1705.96
350.10	1810.40
350.31	1699.81
350.53	1753.06
350.75	1863.65
350.96	1669.09
351.18	1691.62
351.39	1765.35
351.61	1621.99
351.82	1769.44
352.04	1794.02
352.26	1656.81
352.47	1703.91
352.69	1738.73
352.90	1613.80
353.12	1673.19
353.34	1708.01
353.55	1826.79
353.77	1785.83
353.98	1617.90
354.20	1685.48
354.41	1769.44
354.63	1804.26
354.85	1853.41
355.06	1710.05
355.28	1556.46
355.49	1740.77
355.71	1687.53
355.92	1806.31
356.14	1714.15
356.35	1683.43
356.57	1650.66
356.79	1714.15
357.00	1673.19
357.22	1820.64
357.43	1597.42
357.65	1796.07
357.86	1716.20
358.08	1759.21
358.29	1714.15
358.51	1765.35
358.72	1818.60
358.94	1716.20
359.16	1716.20
359.37	1689.57
359.59	1662.95
359.80	1832.93
360.02	1685.48
360.23	1798.12
360.45	1771.49
360.66	1716.20
360.88	1673.19
361.09	1726.44
361.31	1765.35
361.52	1699.81
361.74	1794.02
361.95	1742.82
362.17	1742.82
362.38	1867.75
362.60	1755.11
362.81	1685.48
363.03	1652.71
363.24	1667.05
363.46	1730.53
363.67	1708.01
363.89	1722.34
364.10	1767.40
364.32	1716.20
364.53	1716.20
364.75	1603.56
364.96	1742.82
365.18	1748.97
365.39	1740.77
365.61	1660.90
365.82	1812.45
366.04	1691.62
366.25	1675.24
366.47	1687.53
366.68	1781.73
366.90	1656.81
367.11	1746.92
367.33	1714.15
367.54	1763.30
367.76	1697.77
367.97	1757.16
368.19	1732.58
368.40	1759.21
368.62	1597.42
368.83	1646.57
369.05	1728.49
369.26	1624.04
369.48	1681.38
369.69	1673.19
369.91	1728.49
370.12	1689.57
370.33	1767.40
370.55	1628.14
370.76	1662.95
370.98	1746.92
371.19	1697.77
371.41	1724.39
371.62	1742.82
371.84	1607.66
372.05	1765.35
372.27	1679.33
372.48	1722.34
372.69	1710.05
372.91	1716.20
373.12	1773.54
373.34	1642.47
373.55	1701.86
373.77	1761.25
373.98	1695.72
374.20	1683.43
374.41	1859.56
374.62	1740.77
374.84	1652.71
375.05	1681.38
375.27	1658.85
375.48	1644.52
375.70	1673.19
375.91	1759.21
376.12	1837.03
376.34	1697.77
376.55	1656.81
376.77	1736.68
376.98	1675.24
377.19	1646.57
377.41	1640.42
377.62	1759.21
377.84	1759.21
378.05	1865.70
378.27	1648.61
378.48	1824.74
378.69	1787.88
378.91	1818.60
379.12	1746.92
379.34	1724.39
379.55	1804.26
379.76	1769.44
379.98	1744.87
380.19	1665.00
380.41	1701.86
380.62	1802.21
380.83	1597.42
381.05	1648.61
381.26	1806.31
381.47	1656.81
381.69	1679.33
381.90	1816.55
382.12	1724.39
382.33	1699.81
382.54	1789.92
382.76	1677.29
382.97	1693.67
383.19	1656.81
383.40	1705.96
383.61	1716.20
383.83	1679.33
384.04	1716.20
384.25	1697.77
384.47	1755.11
384.68	1689.57
384.89	1658.85
385.11	1685.48
385.32	1667.05
385.54	1562.60
385.75	1705.96
385.96	1726.44
386.18	1679.33
386.39	1658.85
386.60	1665.00
386.82	1667.05
387.03	1626.09
387.24	1845.22
387.46	1660.90
387.67	1679.33
387.88	1667.05
388.10	1669.09
388.31	1699.81
388.52	1693.67
388.74	1769.44
388.95	1671.14
389.16	1595.37
389.38	1617.90
389.59	1761.25
389.80	1810.40
390.02	1730.53
390.23	1787.88
390.44	1654.76
390.66	1646.57
390.87	1615.85
391.08	1724.39
391.30	1785.83
391.51	1736.68
391.72	1777.64
391.94	1755.11
392.15	1652.71
392.36	1654.76
392.58	1669.09
392.79	1789.92
393.00	1697.77
393.22	1708.01
393.43	1871.84
393.64	1806.31
393.85	1753.06
394.07	1634.28
394.28	1732.58
394.49	1765.35
394.71	1746.92
394.92	1779.68
395.13	1689.57
395.35	1644.52
395.56	1675.24
395.77	1687.53
395.98	1634.28
396.20	1734.63
396.41	1693.67
396.62	1751.01
396.84	1681.38
397.05	1669.09
397.26	1697.77
397.47	1794.02
397.69	1583.08
397.90	1927.14
398.11	1744.87
398.32	1644.52
398.54	1687.53
398.75	1703.91
398.96	1681.38
399.18	1808.36
399.39	1744.87
399.60	1763.30
399.81	1658.85
400.03	1572.84
400.24	1892.32
400.45	1703.91
400.66	1732.58
400.88	1607.66
401.09	1880.04
401.30	1687.53
401.51	1779.68
401.73	1761.25
401.94	1779.68
402.15	1705.96
402.36	1728.49
402.58	1794.02
402.79	1718.25
403.00	1748.97
403.21	1705.96
403.43	1763.30
403.64	1720.29
403.85	1701.86
404.06	1705.96
404.27	1583.08
404.49	1671.14
404.70	1675.24
404.91	1765.35
405.12	1679.33
405.34	1738.73
405.55	1814.50
405.76	1519.59
405.97	1619.94
406.19	1851.36
406.40	1613.80
406.61	1679.33
406.82	1679.33
407.03	1710.05
407.25	1669.09
407.46	1816.55
407.67	1716.20
407.88	1791.97
408.09	1691.62
408.31	1722.34
408.52	1679.33
408.73	1689.57
408.94	1699.81
409.15	1705.96
409.37	1744.87
409.58	1728.49
409.79	1681.38
410.00	1818.60
410.21	1689.57
410.43	1738.73
410.64	1685.48
410.85	1765.35
411.06	1734.63
411.27	1687.53
411.48	1699.81
411.70	1679.33
411.91	1697.77
412.12	1744.87
412.33	1738.73
412.54	1667.05
412.76	1771.49
412.97	1814.50
413.18	1701.86
413.39	1761.25
413.60	1744.87
413.81	1779.68
414.03	1640.42
414.24	1636.33
414.45	1826.79
414.66	1687.53
414.87	1751.01
415.08	1636.33
415.30	1761.25
415.51	1632.23
415.72	1716.20
415.93	1679.33
416.14	1775.59
416.35	1740.77
416.56	1648.61
416.78	1769.44
416.99	1667.05
417.20	1806.31
417.41	1748.97
417.62	1662.95
417.83	1732.58
418.04	1693.67
418.26	1834.98
418.47	1712.10
418.68	1722.34
418.89	1746.92
419.10	1912.80
419.31	1687.53
419.52	1785.83
419.73	1703.91
419.95	1734.63
420.16	1662.95
420.37	1658.85
420.58	1742.82
420.79	1581.03
421.00	1748.97
421.21	1748.97
421.42	1634.28
421.63	1701.86
421.85	1716.20
422.06	1658.85
422.27	1720.29
422.48	1734.63
422.69	1667.05
422.90	1568.74
423.11	1574.89
423.32	1796.07
423.53	1779.68
423.75	1722.34
423.96	1773.54
424.17	1775.59
424.38	1904.61
424.59	1703.91
424.80	1687.53
425.01	1724.39
425.22	1570.79
425.43	1710.05
425.64	1722.34
425.85	1714.15
426.06	1736.68
426.28	1667.05
426.49	1640.42
426.70	1538.02
426.91	1677.29
427.12	1691.62
427.33	1675.24
427.54	1658.85
427.75	1699.81
427.96	1767.40
428.17	1798.12
428.38	1671.14
428.59	1757.16
428.80	1691.62
429.01	1730.53
429.23	1654.76
429.44	1695.72
429.65	1759.21
429.86	1726.44
430.07	1669.09
430.28	1658.85
430.49	1738.73
430.70	1785.83
430.91	1861.60
431.12	1673.19
431.33	1712.10
431.54	1722.34
431.75	1665.00
431.96	1708.01
432.17	1687.53
432.38	1796.07
432.59	1837.03
432.80	1824.74
433.01	1708.01
433.22	1699.81
433.43	1738.73
433.64	1710.05
433.85	1828.84
434.06	1648.61
434.27	1621.99
434.49	1603.56
434.70	1699.81
434.91	1732.58
435.12	1646.57
435.33	1726.44
435.54	1677.29
435.75	1638.38
435.96	1708.01
436.17	1740.77
436.38	1724.39
436.59	1748.97
436.80	1583.08
437.01	1775.59
437.22	1775.59
437.43	1757.16
437.64	1650.66
437.85	1722.34
438.06	1779.68
438.27	1757.16
438.48	1652.71
438.69	1714.15
438.90	1708.01
439.11	1697.77
439.32	1808.36
439.53	1595.37
439.74	1624.04
439.95	1689.57
440.16	1654.76
440.37	1699.81
440.57	1630.18
440.78	1683.43
440.99	1740.77
441.20	1722.34
441.41	1574.89
441.62	1679.33
441.83	1687.53
442.04	1621.99
442.25	1624.04
442.46	1624.04
442.67	1583.08
442.88	1877.99
443.09	1701.86
443.30	1640.42
443.51	1712.10
443.72	1687.53
443.93	1626.09
444.14	1722.34
444.35	1630.18
444.56	1708.01
444.77	1687.53
444.98	1685.48
445.19	1701.86
445.40	1689.57
445.61	1687.53
445.81	1677.29
446.02	1781.73
446.23	1718.25
446.44	1673.19
446.65	1695.72
446.86	1720.29
447.07	1830.88
447.28	1640.42
447.49	1712.10
447.70	1732.58
447.91	1738.73
448.12	1730.53
448.33	1732.58
448.54	1681.38
448.74	1701.86
448.95	1673.19
449.16	1708.01
449.37	1773.54
449.58	1751.01
449.79	1695.72
450.00	1656.81
450.21	1697.77
450.42	1687.53
450.63	1769.44
450.84	1669.09
451.05	1736.68
451.25	1691.62
451.46	1714.15
451.67	1802.21
451.88	1626.09
452.09	1693.67
452.30	1714.15
452.51	1619.94
452.72	1755.11
452.93	1861.60
453.13	1677.29
453.34	1554.41
453.55	1740.77
453.76	1658.85
453.97	1636.33
454.18	1591.27
454.39	1777.64
454.60	1685.48
454.81	1708.01
455.01	1667.05
455.22	1585.13
455.43	1667.05
455.64	1691.62
455.85	1753.06
456.06	1712.10
456.27	1773.54
456.48	1693.67
456.68	1732.58
456.89	1769.44
457.10	1687.53
457.31	1687.53
457.52	1744.87
457.73	1677.29
457.94	1705.96
458.14	1583.08
458.35	1710.05
458.56	1718.25
458.77	1697.77
458.98	1677.29
459.19	1716.20
459.39	1626.09
459.60	1669.09
459.81	1689.57
460.02	1677.29
460.23	1650.66
460.44	1658.85
460.65	1685.48
460.85	1624.04
461.06	1564.65
461.27	1691.62
461.48	1693.67
461.69	1626.09
461.89	1546.22
462.10	1685.48
462.31	1669.09
462.52	1593.32
462.73	1583.08
462.94	1728.49
463.14	1710.05
463.35	1697.77
463.56	1773.54
463.77	1714.15
463.98	1607.66
464.18	1712.10
464.39	1816.55
464.60	1724.39
464.81	1589.22
465.02	1740.77
465.23	1710.05
465.43	1724.39
465.64	1669.09
465.85	1619.94
466.06	1738.73
466.27	1765.35
466.47	1665.00
466.68	1701.86
466.89	1689.57
467.10	1587.18
467.30	1615.85
467.51	1726.44
467.72	1769.44
467.93	1578.98
468.14	1658.85
468.34	1748.97
468.55	1660.90
468.76	1828.84
468.97	1695.72
469.17	1738.73
469.38	1853.41
469.59	1697.77
469.80	1703.91
470.01	1697.77
470.21	1695.72
470.42	1665.00
470.63	1726.44
470.84	1798.12
471.04	1650.66
471.25	1798.12
471.46	1667.05
471.67	1859.56
471.87	1665.00
472.08	1732.58
472.29	1607.66
472.50	1732.58
472.70	1712.10
472.91	1621.99
473.12	1636.33
473.33	1638.38
473.53	1695.72
473.74	1675.24
473.95	1607.66
474.16	1615.85
474.36	1615.85
474.57	1773.54
474.78	1646.57
474.99	1785.83
475.19	1679.33
475.40	1759.21
475.61	1728.49
475.81	1783.78
476.02	1679.33
476.23	1699.81
476.44	1710.05
476.64	1677.29
476.85	1728.49
477.06	1632.23
477.27	1628.14
477.47	1769.44
477.68	1646.57
477.89	1667.05
478.09	1757.16
478.30	1650.66
478.51	1736.68
478.71	1648.61
478.92	1714.15
479.13	1708.01
479.34	1654.76
479.54	1730.53
479.75	1658.85
479.96	1701.86
480.16	1632.23
480.37	1687.53
480.58	1681.38
480.78	1753.06
480.99	1662.95
481.20	1650.66
481.41	1728.49
481.61	1716.20
481.82	1787.88
482.03	1675.24
482.23	1607.66
482.44	1794.02
482.65	1814.50
482.85	1755.11
483.06	1722.34
483.27	1714.15
483.47	1759.21
483.68	1687.53
483.89	1662.95
484.09	1708.01
484.30	1660.90
484.51	1759.21
484.71	1691.62
484.92	1599.46
485.13	1726.44
485.33	1638.38
485.54	1673.19
485.75	1732.58
485.95	1818.60
486.16	1716.20
486.37	1732.58
486.57	1662.95
486.78	1621.99
486.98	1744.87
487.19	1716.20
487.40	1744.87
487.60	1638.38
487.81	1656.81
488.02	1658.85
488.22	1648.61
488.43	1761.25
488.64	1689.57
488.84	1583.08
489.05	1755.11
489.25	1679.33
489.46	1703.91
489.67	1699.81
489.87	1744.87
490.08	1675.24
490.29	1607.66
490.49	1869.80
490.70	1712.10
490.90	1744.87
491.11	1642.47
491.32	1697.77
491.52	1697.77
491.73	1669.09
491.94	1644.52
492.14	1570.79
492.35	1601.51
492.55	1789.92
492.76	1650.66
492.97	1673.19
493.17	1722.34
493.38	1699.81
493.58	1708.01
493.79	1724.39
494.00	1691.62
494.20	1693.67
494.41	1751.01
494.61	1732.58
494.82	1695.72
495.02	1617.90
495.23	1761.25
495.44	1710.05
495.64	1771.49
495.85	1665.00
496.05	1744.87
496.26	1687.53
496.47	1658.85
496.67	1617.90
496.88	1806.31
497.08	1621.99
497.29	1656.81
497.49	1744.87
497.70	1791.97
497.91	1708.01
498.11	1773.54
498.32	1746.92
498.52	1738.73
498.73	1720.29
498.93	1781.73
499.14	1732.58
499.34	1765.35
499.55	1761.25
499.76	1626.09
499.96	1712.10
500.17	1675.24
500.37	1691.62
500.58	1621.99
500.78	1669.09
500.99	1728.49
501.19	1671.14
501.40	1763.30
501.60	1640.42
501.81	1591.27
502.02	1787.88
502.22	1654.76
502.43	1665.00
502.63	1898.47
502.84	1802.21
503.04	1720.29
503.25	1804.26
503.45	1753.06
503.66	1570.79
503.86	1746.92
504.07	1771.49
504.27	1654.76
504.48	1667.05
504.68	1714.15
504.89	1718.25
505.09	1611.75
505.30	1669.09
505.50	1689.57
505.71	1689.57
505.91	1708.01
506.12	1783.78
506.32	1753.06
506.53	1578.98
506.73	1757.16
506.94	1658.85
507.14	1601.51
507.35	1720.29
507.55	1701.86
507.76	1677.29
507.96	1578.98
508.17	1689.57
508.37	1679.33
508.58	1773.54
508.78	1699.81
508.99	1816.55
509.19	1732.58
509.40	1669.09
509.60	1662.95
509.81	1753.06
510.01	1738.73
510.22	1720.29
510.42	1722.34
510.63	1740.77
510.83	1665.00
511.04	1689.57
511.24	1765.35
511.44	1726.44
511.65	1695.72
511.85	1638.38
512.06	1781.73
512.26	1636.33
512.47	1812.45
512.67	1710.05
512.88	1748.97
513.08	1654.76
513.29	1775.59
513.49	1617.90
513.69	1619.94
513.90	1644.52
514.10	1775.59
514.31	1728.49
514.51	1720.29
514.72	1726.44
514.92	1748.97
515.13	1679.33
515.33	1660.90
515.53	1603.56
515.74	1708.01
515.94	1693.67
516.15	1783.78
516.35	1611.75
516.56	1624.04
516.76	1611.75
516.96	1710.05
517.17	1679.33
517.37	1646.57
517.58	1632.23
517.78	1621.99
517.99	1677.29
518.19	1783.78
518.39	1701.86
518.60	1724.39
518.80	1697.77
519.01	1746.92
519.21	1687.53
519.41	1763.30
519.62	1615.85
519.82	1748.97
520.03	1720.29
520.23	1679.33
520.43	1646.57
520.64	1695.72
520.84	1785.83
521.05	1634.28
521.25	1771.49
521.45	1705.96
521.66	1730.53
521.86	1699.81
522.07	1701.86
522.27	1714.15
522.47	1644.52
522.68	1703.91
522.88	1640.42
523.08	1767.40
523.29	1597.42
523.49	1652.71
523.70	1603.56
523.90	1652.71
524.10	1785.83
524.31	1648.61
524.51	1542.12
524.71	1705.96
524.92	1726.44
525.12	1595.37
525.33	1744.87
525.53	1705.96
525.73	1812.45
525.94	1673.19
526.14	1683.43
526.34	1679.33
526.55	1654.76
526.75	1683.43
526.95	1834.98
527.16	1589.22
527.36	1716.20
527.56	1716.20
527.77	1658.85
527.97	1746.92
528.17	1769.44
528.38	1687.53
528.58	1722.34
528.78	1619.94
528.99	1601.51
529.19	1710.05
529.39	1642.47
529.60	1652.71
529.80	1654.76
530.00	1671.14
530.21	1683.43
530.41	1712.10
530.61	1791.97
530.82	1720.29
531.02	1621.99
531.22	1748.97
531.43	1804.26
531.63	1699.81
531.83	1660.90
532.04	1800.16
532.24	1728.49
532.44	1593.32
532.64	1841.12
532.85	1605.61
533.05	1617.90
533.25	1648.61
533.46	1759.21
533.66	1734.63
533.86	1730.53
534.07	1722.34
534.27	1654.76
534.47	1697.77
534.67	1761.25
534.88	1607.66
535.08	1693.67
535.28	1804.26
535.49	1605.61
535.69	1699.81
535.89	1728.49
536.09	1775.59
536.30	1712.10
536.50	1665.00
536.70	1705.96
536.91	1652.71
537.11	1726.44
537.31	1648.61
537.51	1732.58
537.72	1708.01
537.92	1679.33
538.12	1699.81
538.32	1722.34
538.53	1630.18
538.73	1595.37
538.93	1648.61
539.13	1699.81
539.34	1730.53
539.54	1615.85
539.74	1716.20
539.94	1691.62
540.15	1701.86
540.35	1789.92
540.55	1722.34
540.75	1648.61
540.96	1691.62
541.16	1687.53
541.36	1656.81
541.56	1732.58
541.77	1781.73
541.97	1708.01
542.17	1642.47
542.37	1773.54
542.58	1722.34
542.78	1705.96
542.98	1701.86
543.18	1662.95
543.38	1767.40
543.59	1687.53
543.79	1658.85
543.99	1585.13
544.19	1654.76
544.40	1744.87
544.60	1636.33
544.80	1718.25
545.00	1617.90
545.20	1787.88
545.41	1712.10
545.61	1646.57
545.81	1710.05
546.01	1724.39
546.21	1601.51
546.42	1605.61
546.62	1765.35
546.82	1656.81
547.02	1650.66
547.22	1732.58
547.43	1806.31
547.63	1705.96
547.83	1675.24
548.03	1693.67
548.23	1767.40
548.44	1673.19
548.64	1642.47
548.84	1759.21
549.04	1656.81
549.24	1773.54
549.45	1818.60
549.65	1691.62
549.85	1736.68
550.05	1695.72
550.25	1546.22
550.45	1781.73
550.66	1718.25
550.86	1667.05
551.06	1640.42
551.26	1689.57
551.46	1652.71
551.66	1695.72
551.87	1748.97
552.07	1697.77
552.27	1720.29
552.47	1849.32
552.67	1642.47
552.87	1732.58
553.07	1701.86
553.28	1656.81
553.48	1673.19
553.68	1675.24
553.88	1716.20
554.08	1744.87
554.28	1556.46
554.48	1669.09
554.69	1685.48
554.89	1585.13
555.09	1615.85
555.29	1605.61
555.49	1669.09
555.69	1677.29
555.89	1744.87
556.10	1697.77
556.30	1634.28
556.50	1718.25
556.70	1677.29
556.90	1671.14
557.10	1785.83
557.30	1744.87
557.50	1617.90
557.70	1730.53
557.91	1619.94
558.11	1685.48
558.31	1748.97
558.51	1767.40
558.71	1724.39
558.91	1658.85
559.11	1615.85
559.31	1697.77
559.51	1673.19
559.72	1771.49
559.92	1628.14
560.12	1644.52
560.32	1781.73
560.52	1677.29
560.72	1648.61
560.92	1789.92
561.12	1748.97
561.32	1675.24
561.52	1609.70
561.72	1832.93
561.93	1759.21
562.13	1650.66
562.33	1601.51
562.53	1683.43
562.73	1681.38
562.93	1791.97
563.13	1748.97
563.33	1726.44
563.53	1759.21
563.73	1753.06
563.93	1767.40
564.13	1791.97
564.33	1726.44
564.53	1755.11
564.74	1609.70
564.94	1650.66
565.14	1654.76
565.34	1738.73
565.54	1646.57
565.74	1652.71
565.94	1640.42
566.14	1685.48
566.34	1662.95
566.54	1732.58
566.74	1740.77
566.94	1746.92
567.14	1660.90
567.34	1740.77
567.54	1705.96
567.74	1710.05
567.94	1675.24
568.14	1630.18
568.34	1777.64
568.54	1654.76
568.74	1677.29
568.94	1710.05
569.14	1853.41
569.34	1634.28
569.54	1705.96
569.75	1695.72
569.95	1669.09
570.15	1740.77
570.35	1650.66
570.55	1775.59
570.75	1626.09
570.95	1705.96
571.15	1753.06
571.35	1755.11
571.55	1669.09
571.75	1712.10
571.95	1640.42
572.15	1634.28
572.35	1683.43
572.55	1728.49
572.75	1675.24
572.95	1593.32
573.15	1712.10
573.35	1771.49
573.55	1667.05
573.75	1675.24
573.95	1859.56
574.15	1728.49
574.35	1662.95
574.55	1697.77
574.75	1656.81
574.95	1681.38
575.15	1660.90
575.34	1685.48
575.54	1685.48
575.74	1662.95
575.94	1683.43
576.14	1626.09
576.34	1710.05
576.54	1654.76
576.74	1769.44
576.94	1634.28
577.14	1615.85
577.34	1738.73
577.54	1626.09
577.74	1632.23
577.94	1708.01
578.14	1662.95
578.34	1734.63
578.54	1554.41
578.74	1693.67
578.94	1722.34
579.14	1708.01
579.34	1576.94
579.54	1691.62
579.74	1638.38
579.94	1654.76
580.13	1716.20
580.33	1609.70
580.53	1687.53
580.73	1677.29
580.93	1730.53
581.13	1669.09
581.33	1775.59
581.53	1667.05
581.73	1763.30
581.93	1658.85
582.13	1716.20
582.33	1712.10
582.53	1675.24
582.73	1738.73
582.92	1630.18
583.12	1697.77
583.32	1662.95
583.52	1716.20
583.72	1873.89
583.92	1710.05
584.12	1724.39
584.32	1716.20
584.52	1621.99
584.72	1658.85
584.92	1648.61
585.11	1652.71
585.31	1712.10
585.51	1654.76
585.71	1763.30
585.91	1779.68
586.11	1675.24
586.31	1695.72
586.51	1673.19
586.71	1726.44
586.91	1685.48
587.10	1787.88
587.30	1777.64
587.50	1630.18
587.70	1601.51
587.90	1720.29
588.10	1716.20
588.30	1724.39
588.50	1660.90
588.69	1683.43
588.89	1720.29
589.09	1771.49
589.29	1667.05
589.49	1624.04
589.69	1609.70
589.89	1755.11
590.08	1695.72
590.28	1662.95
590.48	1716.20
590.68	1732.58
590.88	1671.14
591.08	1720.29
591.28	1710.05
591.47	1671.14
591.67	1621.99
591.87	1689.57
592.07	1798.12
592.27	1615.85
592.47	1583.08
592.67	1665.00
592.86	1662.95
593.06	1687.53
593.26	1757.16
593.46	1773.54
593.66	1593.32
593.86	1748.97
594.05	1763.30
594.25	1751.01
594.45	1718.25
594.65	1824.74
594.85	1728.49
595.05	1603.56
595.24	1689.57
595.44	1679.33
595.64	1656.81
595.84	1716.20
596.04	1679.33
596.23	1701.86
596.43	1654.76
596.63	1687.53
596.83	1683.43
597.03	1697.77
597.22	1798.12
597.42	1730.53
597.62	1763.30
597.82	1708.01
598.02	1751.01
598.21	1697.77
598.41	1697.77
598.61	1744.87
598.81	1691.62
599.01	1677.29
599.20	1679.33
599.40	1626.09
599.60	1740.77
599.80	1687.53
600.00	1808.36
600.19	1740.77
600.39	1617.90
600.59	1773.54
600.79	1751.01
600.98	1716.20
601.18	1640.42
601.38	1712.10
601.58	1734.63
601.78	1732.58
601.97	1781.73
602.17	1759.21
602.37	1599.46
602.57	1748.97
602.76	1705.96
602.96	1691.62
603.16	1644.52
603.36	1722.34
603.55	1722.34
603.75	1638.38
603.95	1691.62
604.15	1751.01
604.34	1658.85
604.54	1697.77
604.74	1753.06
604.94	1699.81
605.13	1679.33
605.33	1601.51
605.53	1648.61
605.73	1769.44
605.92	1697.77
606.12	1705.96
606.32	1683.43
606.52	1718.25
606.71	1728.49
606.91	1710.05
607.11	1708.01
607.30	1642.47
607.50	1748.97
607.70	1859.56
607.90	1685.48
608.09	1673.19
608.29	1728.49
608.49	1851.36
608.68	1628.14
608.88	1626.09
609.08	1556.46
609.28	1732.58
609.47	1654.76
609.67	1800.16
609.87	1732.58
610.06	1687.53
610.26	1685.48
610.46	1787.88
610.66	1697.77
610.85	1648.61
611.05	1736.68
611.25	1683.43
611.44	1599.46
611.64	1701.86
611.84	1712.10
612.03	1593.32
612.23	1597.42
612.43	1753.06
612.62	1669.09
612.82	1736.68
613.02	1753.06
613.21	1699.81
613.41	1779.68
613.61	1699.81
613.80	1671.14
614.00	1714.15
614.20	1761.25
614.39	1777.64
614.59	1773.54
614.79	1695.72
614.98	1691.62
615.18	1642.47
615.38	1667.05
615.57	1628.14
615.77	1843.17
615.97	1683.43
616.16	1703.91
616.36	1726.44
616.56	1644.52
616.75	1718.25
616.95	1644.52
617.15	1775.59
617.34	1683.43
617.54	1861.60
617.74	1783.78
617.93	1802.21
618.13	1728.49
618.32	1722.34
618.52	1716.20
618.72	1642.47
618.91	1775.59
619.11	1773.54
619.31	1734.63
619.50	1591.27
619.70	1681.38
619.90	1726.44
620.09	1724.39
620.29	1634.28
620.48	1763.30
620.68	1705.96
620.88	1632.23
621.07	1818.60
621.27	1761.25
621.46	1677.29
621.66	1746.92
621.86	1638.38
622.05	1646.57
622.25	1804.26
622.44	1685.48
622.64	1675.24
622.84	1730.53
623.03	1603.56
623.23	1677.29
623.42	1767.40
623.62	1732.58
623.82	1722.34
624.01	1779.68
624.21	1728.49
624.40	1798.12
624.60	1665.00
624.80	1656.81
624.99	1689.57
625.19	1693.67
625.38	1708.01
625.58	1654.76
625.77	1775.59
625.97	1800.16
626.17	1722.34
626.36	1630.18
626.56	1705.96
626.75	1646.57
626.95	1712.10
627.14	1724.39
627.34	1642.47
627.54	1681.38
627.73	1806.31
627.93	1800.16
628.12	1744.87
628.32	1734.63
628.51	1714.15
628.71	1828.84
628.90	1748.97
629.10	1675.24
629.30	1642.47
629.49	1626.09
629.69	1683.43
629.88	1630.18
630.08	1765.35
630.27	1849.32
630.47	1751.01
630.66	1671.14
630.86	1732.58
631.05	1656.81
631.25	1662.95
631.44	1785.83
631.64	1658.85
631.84	1570.79
632.03	1738.73
632.23	1681.38
632.42	1732.58
632.62	1624.04
632.81	1613.80
633.01	1662.95
633.20	1863.65
633.40	1796.07
633.59	1759.21
633.79	1658.85
633.98	1775.59
634.18	1720.29
634.37	1779.68
634.57	1677.29
634.76	1679.33
634.96	1769.44
635.15	1902.56
635.35	1695.72
635.54	1757.16
635.74	1689.57
635.93	1626.09
636.13	1744.87
636.32	1761.25
636.52	1669.09
636.71	1687.53
636.91	1751.01
637.10	1722.34
637.30	1708.01
637.49	1701.86
637.69	1767.40
637.88	1845.22
638.08	1660.90
638.27	1740.77
638.46	1658.85
638.66	1605.61
638.85	1673.19
639.05	1753.06
639.24	1757.16
639.44	1681.38
639.63	1708.01
639.83	1746.92
640.02	1812.45
640.22	1728.49
640.41	1693.67
640.61	1691.62
640.80	1634.28
640.99	1757.16
641.19	1763.30
641.38	1800.16
641.58	1628.14
641.77	1744.87
641.97	1597.42
642.16	1630.18
642.36	1753.06
642.55	1679.33
642.74	1767.40
642.94	1716.20
643.13	1679.33
643.33	1806.31
643.52	1671.14
643.72	1722.34
643.91	1695.72
644.10	1775.59
644.30	1724.39
644.49	1771.49
644.69	1732.58
644.88	1712.10
645.08	1757.16
645.27	1722.34
645.46	1611.75
645.66	1722.34
645.85	1636.33
646.05	1648.61
646.24	1624.04
646.43	1697.77
646.63	1728.49
646.82	1675.24
647.02	1683.43
647.21	1837.03
647.40	1632.23
647.60	1669.09
647.79	1781.73
647.99	1681.38
648.18	1667.05
648.37	1794.02
648.57	1775.59
648.76	1708.01
648.96	1644.52
649.15	1681.38
649.34	1826.79
649.54	1675.24
649.73	1660.90
649.92	1712.10
650.12	1671.14
650.31	1763.30
650.51	1937.38
650.70	1708.01
650.89	1714.15
651.09	1714.15
651.28	1701.86
651.47	1705.96
651.67	1753.06
651.86	1777.64
652.06	1716.20
652.25	1701.86
652.44	1574.89
652.64	1673.19
652.83	1697.77
653.02	1716.20
653.22	1730.53
653.41	1650.66
653.60	1630.18
653.80	1533.93
653.99	1828.84
654.18	1724.39
654.38	1669.09
654.57	1781.73
654.76	1679.33
654.96	1724.39
655.15	1599.46
655.34	1742.82
655.54	1513.45
655.73	1718.25
655.92	1626.09
656.12	1699.81
656.31	1757.16
656.50	1757.16
656.70	1744.87
656.89	1650.66
657.08	1599.46
657.28	1695.72
657.47	1677.29
657.66	1691.62
657.86	1675.24
658.05	1714.15
658.24	1679.33
658.43	1781.73
658.63	1605.61
658.82	1710.05
659.01	1761.25
659.21	1738.73
659.40	1660.90
659.59	1779.68
659.79	1679.33
659.98	1804.26
660.17	1742.82
660.36	1695.72
660.56	1767.40
660.75	1716.20
660.94	1705.96
661.14	1679.33
661.33	1732.58
661.52	1722.34
661.71	1724.39
661.91	1650.66
662.10	1714.15
662.29	1669.09
662.49	1669.09
662.68	1593.32
662.87	1691.62
663.06	1720.29
663.26	1662.95
663.45	1873.89
663.64	1675.24
663.83	1722.34
664.03	1773.54
664.22	1712.10
664.41	1757.16
664.60	1785.83
664.80	1621.99
664.99	1734.63
665.18	1757.16
665.37	1705.96
665.57	1753.06
665.76	1703.91
665.95	1753.06
666.14	1665.00
666.34	1785.83
666.53	1667.05
666.72	1642.47
666.91	1751.01
667.11	1746.92
667.30	1863.65
667.49	1671.14
667.68	1810.40
667.87	1777.64
668.07	1724.39
668.26	1632.23
668.45	1617.90
668.64	1677.29
668.84	1779.68
669.03	1701.86
669.22	1785.83
669.41	1748.97
669.60	1646.57
669.80	1751.01
669.99	1652.71
670.18	1632.23
670.37	1777.64
670.57	1683.43
670.76	1746.92
670.95	1816.55
671.14	1650.66
671.33	1687.53
671.53	1708.01
671.72	1757.16
671.91	1736.68
672.10	1691.62
672.29	1685.48
672.48	1658.85
672.68	1679.33
672.87	1732.58
673.06	1652.71
673.25	1695.72
673.44	1660.90
673.64	1613.80
673.83	1693.67
674.02	1693.67
674.21	1759.21
674.40	1753.06
674.59	1722.34
674.79	1648.61
674.98	1671.14
675.17	1748.97
675.36	1552.36
675.55	1632.23
675.74	1595.37
675.94	1765.35
676.13	1781.73
676.32	1720.29
676.51	1665.00
676.70	1560.55
676.89	1791.97
677.08	1650.66
677.28	1814.50
677.47	1724.39
677.66	1665.00
677.85	1642.47
678.04	1703.91
678.23	1765.35
678.42	1734.63
678.62	1751.01
678.81	1626.09
679.00	1648.61
679.19	1814.50
679.38	1689.57
679.57	1660.90
679.76	1671.14
679.96	1648.61
680.15	1677.29
680.34	1671.14
680.53	1736.68
680.72	1738.73
680.91	1650.66
681.10	1740.77
681.29	1662.95
681.48	1708.01
681.68	1673.19
681.87	1875.94
682.06	1658.85
682.25	1775.59
682.44	1685.48
682.63	1794.02
682.82	1572.84
683.01	1765.35
683.20	1677.29
683.39	1771.49
683.59	1681.38
683.78	1652.71
683.97	1669.09
684.16	1660.90
684.35	1679.33
684.54	1753.06
684.73	1761.25
684.92	1597.42
685.11	1759.21
685.30	1746.92
685.49	1673.19
685.69	1818.60
685.88	1685.48
686.07	1560.55
686.26	1607.66
686.45	1640.42
686.64	1699.81
686.83	1716.20
687.02	1728.49
687.21	1787.88
687.40	1665.00
687.59	1837.03
687.78	1773.54
687.97	1740.77
688.16	1726.44
688.35	1624.04
688.54	1736.68
688.74	1560.55
688.93	1699.81
689.12	1658.85
689.31	1800.16
689.50	1751.01
689.69	1724.39
689.88	1587.18
690.07	1712.10
690.26	1650.66
690.45	1636.33
690.64	1646.57
690.83	1642.47
691.02	1746.92
691.21	1726.44
691.40	1658.85
691.59	1697.77
691.78	1701.86
691.97	1722.34
692.16	1603.56
692.35	1738.73
692.54	1755.11
692.73	1558.50
692.92	1771.49
693.11	1689.57
693.30	1857.51
693.49	1638.38
693.68	1730.53
693.87	1638.38
694.06	1689.57
694.25	1662.95
694.44	1667.05
694.63	1665.00
694.82	1634.28
695.01	1740.77
695.20	1714.15
695.39	1677.29
695.58	1767.40
695.77	1599.46
695.96	1716.20
696.15	1656.81
696.34	1638.38
696.53	1646.57
696.72	1744.87
696.91	1617.90
697.10	1718.25
697.29	1722.34
697.48	1824.74
697.67	1667.05
697.86	1683.43
698.05	1658.85
698.24	1660.90
698.43	1591.27
698.62	1724.39
698.81	1693.67
699.00	1732.58
699.19	1771.49
699.38	1646.57
699.57	1695.72
699.76	1744.87
699.95	1701.86
700.14	1691.62
700.32	1691.62
700.51	1722.34
700.70	1689.57
700.89	1794.02
701.08	1703.91
701.27	1718.25
701.46	1791.97
701.65	1757.16
701.84	1642.47
702.03	1708.01
702.22	1740.77
702.41	1771.49
702.60	1738.73
702.79	1658.85
702.98	1687.53
703.17	1746.92
703.35	1716.20
703.54	1732.58
703.73	1685.48
703.92	1578.98
704.11	1644.52
704.30	1705.96
704.49	1748.97
704.68	1714.15
704.87	1613.80
705.06	1767.40
705.25	1615.85
705.43	1617.90
705.62	1667.05
705.81	1781.73
706.00	1746.92
706.19	1626.09
706.38	1710.05
706.57	1822.69
706.76	1650.66
706.95	1730.53
707.14	1757.16
707.32	1675.24
707.51	1632.23
707.70	1744.87
707.89	1687.53
708.08	1619.94
708.27	1689.57
708.46	1632.23
708.65	1558.50
708.84	1716.20
709.02	1644.52
709.21	1660.90
709.40	1597.42
709.59	1779.68
709.78	1611.75
709.97	1691.62
710.16	1695.72
710.34	1673.19
710.53	1726.44
710.72	1687.53
710.91	1691.62
711.10	1665.00
711.29	1730.53
711.48	1794.02
711.66	1785.83
711.85	1732.58
712.04	1757.16
712.23	1697.77
712.42	1716.20
712.61	1751.01
712.80	1587.18
712.98	1712.10
713.17	1693.67
713.36	1673.19
713.55	1765.35
713.74	1669.09
713.93	1773.54
714.11	1634.28
714.30	1607.66
714.49	1779.68
714.68	1646.57
714.87	1630.18
715.06	1726.44
715.24	1697.77
715.43	1681.38
715.62	1660.90
715.81	1699.81
716.00	1773.54
716.18	1617.90
716.37	1710.05
716.56	1675.24
716.75	1693.67
716.94	1626.09
717.12	1722.34
717.31	1648.61
717.50	1699.81
717.69	1589.22
717.88	1748.97
718.06	1703.91
718.25	1726.44
718.44	1589.22
718.63	1667.05
718.82	1638.38
719.00	1615.85
719.19	1914.85
719.38	1646.57
719.57	1714.15
719.76	1693.67
719.94	1699.81
720.13	1748.97
720.32	1787.88
720.51	1695.72
720.69	1726.44
720.88	1783.78
721.07	1679.33
721.26	1740.77
721.44	1681.38
721.63	1667.05
721.82	1691.62
722.01	1724.39
722.20	1671.14
722.38	1638.38
722.57	1650.66
722.76	1667.05
722.95	1540.07
723.13	1671.14
723.32	1619.94
723.51	1705.96
723.70	1720.29
723.88	1726.44
724.07	1613.80
724.26	1736.68
724.44	1751.01
724.63	1732.58
724.82	1675.24
725.01	1640.42
725.19	1697.77
725.38	1712.10
725.57	1603.56
725.76	1810.40
725.94	1595.37
726.13	1699.81
726.32	1591.27
726.51	1667.05
726.69	1662.95
726.88	1673.19
727.07	1693.67
727.25	1673.19
727.44	1697.77
727.63	1681.38
727.82	1695.72
728.00	1687.53
728.19	1716.20
728.38	1732.58
728.56	1601.51
728.75	1675.24
728.94	1693.67
729.12	1634.28
729.31	1617.90
729.50	1673.19
729.69	1689.57
729.87	1662.95
730.06	1648.61
730.25	1697.77
730.43	1695.72
730.62	1730.53
730.81	1628.14
730.99	1665.00
731.18	1763.30
731.37	1648.61
731.55	1701.86
731.74	1744.87
731.93	1779.68
732.11	1728.49
732.30	1695.72
732.49	1699.81
732.67	1599.46
732.86	1611.75
733.05	1667.05
733.23	1738.73
733.42	1691.62
733.61	1638.38
733.79	1693.67
733.98	1757.16
734.17	1628.14
734.35	1716.20
734.54	1773.54
734.73	1720.29
734.91	1613.80
735.10	1703.91
735.29	1679.33
735.47	1611.75
735.66	1599.46
735.84	1765.35
736.03	1630.18
736.22	1693.67
736.40	1734.63
736.59	1617.90
736.78	1705.96
736.96	1630.18
737.15	1708.01
737.33	1669.09
737.52	1662.95
737.71	1685.48
737.89	1621.99
738.08	1679.33
738.27	1716.20
738.45	1636.33
738.64	1740.77
738.82	1617.90
739.01	1699.81
739.20	1671.14
739.38	1787.88
739.57	1730.53
739.75	1722.34
739.94	1730.53
740.13	1609.70
740.31	1708.01
740.50	1679.33
740.68	1667.05
740.87	1642.47
741.06	1777.64
741.24	1712.10
741.43	1613.80
741.61	1617.90
741.80	1681.38
741.99	1665.00
742.17	1751.01
742.36	1656.81
742.54	1642.47
742.73	1732.58
742.91	1660.90
743.10	1693.67
743.29	1691.62
743.47	1691.62
743.66	1611.75
743.84	1679.33
744.03	1679.33
744.21	1642.47
744.40	1685.48
744.59	1607.66
744.77	1609.70
744.96	1746.92
745.14	1585.13
745.33	1640.42
745.51	1703.91
745.70	1681.38
745.88	1714.15
746.07	1650.66
746.26	1720.29
746.44	1640.42
746.63	1554.41
746.81	1712.10
747.00	1654.76
747.18	1673.19
747.37	1644.52
747.55	1744.87
747.74	1961.95
747.92	1703.91
748.11	1701.86
748.29	1714.15
748.48	1769.44
748.66	1585.13
748.85	1724.39
749.03	1732.58
749.22	1638.38
749.41	1605.61
749.59	1763.30
749.78	1734.63
749.96	1581.03
750.15	1658.85
750.33	1681.38
750.52	1634.28
750.70	1673.19
750.89	1714.15
751.07	1667.05
751.26	1658.85
751.44	1671.14
751.63	1740.77
751.81	1644.52
752.00	1595.37
752.18	1634.28
752.37	1794.02
752.55	1605.61
752.74	1634.28
752.92	1638.38
753.10	1656.81
753.29	1681.38
753.47	1626.09
753.66	1552.36
753.84	1646.57
754.03	1646.57
754.21	1671.14
754.40	1652.71
754.58	1761.25
754.77	1753.06
754.95	1701.86
755.14	1716.20
755.32	1640.42
755.51	1621.99
755.69	1679.33
755.88	1624.04
756.06	1777.64
756.24	1665.00
756.43	1708.01
756.61	1697.77
756.80	1638.38
756.98	1699.81
757.17	1705.96
757.35	1726.44
757.54	1667.05
757.72	1617.90
757.90	1599.46
758.09	1695.72
758.27	1630.18
758.46	1638.38
758.64	1777.64
758.83	1675.24
759.01	1705.96
759.19	1732.58
759.38	1662.95
759.56	1712.10
759.75	1638.38
759.93	1744.87
760.12	1630.18
760.30	1626.09
760.48	1609.70
760.67	1677.29
760.85	1603.56
761.04	1644.52
761.22	1624.04
761.40	1658.85
761.59	1675.24
761.77	1646.57
761.96	1667.05
762.14	1710.05
762.32	1773.54
762.51	1617.90
762.69	1667.05
762.88	1734.63
763.06	1589.22
763.24	1648.61
763.43	1636.33
763.61	1730.53
763.80	1693.67
763.98	1726.44
764.16	1550.31
764.35	1603.56
764.53	1720.29
764.72	1697.77
764.90	1626.09
765.08	1660.90
765.27	1650.66
765.45	1638.38
765.63	1617.90
765.82	1656.81
766.00	1626.09
766.18	1687.53
766.37	1665.00
766.55	1638.38
766.74	1703.91
766.92	1634.28
767.10	1640.42
767.29	1732.58
767.47	1634.28
767.65	1744.87
767.84	1667.05
768.02	1746.92
768.20	1689.57
768.39	1628.14
768.57	1652.71
768.75	1624.04
768.94	1759.21
769.12	1708.01
769.30	1724.39
769.49	1708.01
769.67	1716.20
769.85	1765.35
770.04	1681.38
770.22	1644.52
770.40	1689.57
770.59	1691.62
770.77	1798.12
770.95	1699.81
771.14	1691.62
771.32	1648.61
771.50	1646.57
771.69	1581.03
771.87	1662.95
772.05	1638.38
772.24	1527.78
772.42	1708.01
772.60	1671.14
772.78	1705.96
772.97	1495.02
773.15	1654.76
773.33	1724.39
773.52	1558.50
773.70	1671.14
773.88	1712.10
774.07	1607.66
774.25	1642.47
774.43	1738.73
774.61	1675.24
774.80	1636.33
774.98	1658.85
775.16	1695.72
775.34	1681.38
775.53	1703.91
775.71	1757.16
775.89	1734.63
776.08	1632.23
776.26	1652.71
776.44	1669.09
776.62	1640.42
776.81	1673.19
776.99	1765.35
777.17	1695.72
777.35	1773.54
777.54	1687.53
777.72	1656.81
777.90	1656.81
778.08	1710.05
778.27	1658.85
778.45	1591.27
778.63	1632.23
778.81	1769.44
779.00	1677.29
779.18	1740.77
779.36	1701.86
779.54	1689.57
779.73	1640.42
779.91	1658.85
780.09	1542.12
780.27	1734.63
780.46	1630.18
780.64	1699.81
780.82	1656.81
781.00	1662.95
781.19	1597.42
781.37	1712.10
781.55	1775.59
781.73	1708.01
781.91	1591.27
782.10	1703.91
782.28	1683.43
782.46	1683.43
782.64	1720.29
782.82	1681.38
783.01	1667.05
783.19	1744.87
783.37	1640.42
783.55	1646.57
783.74	1730.53
783.92	1601.51
784.10	1693.67
784.28	1621.99
784.46	1638.38
784.64	1568.74
784.83	1734.63
785.01	1757.16
785.19	1785.83
785.37	1728.49
785.55	1654.76
785.74	1636.33
785.92	1652.71
786.10	1638.38
786.28	1771.49
786.46	1679.33
786.64	1607.66
786.83	1624.04
787.01	1755.11
787.19	1751.01
787.37	1732.58
787.55	1660.90
787.74	1634.28
787.92	1619.94
788.10	1685.48
788.28	1595.37
788.46	1634.28
788.64	1726.44
788.82	1691.62
789.01	1603.56
789.19	1615.85
789.37	1724.39
789.55	1726.44
789.73	1566.70
789.91	1699.81
790.09	1701.86
790.28	1599.46
790.46	1556.46
790.64	1685.48
790.82	1613.80
791.00	1634.28
791.18	1705.96
791.36	1601.51
791.55	1656.81
791.73	1697.77
791.91	1605.61
792.09	1677.29
792.27	1507.30
792.45	1716.20
792.63	1740.77
792.81	1703.91
793.00	1640.42
793.18	1644.52
793.36	1748.97
793.54	1632.23
793.72	1642.47
793.90	1632.23
794.08	1509.35
794.26	1718.25
794.44	1621.99
794.62	1675.24
794.81	1634.28
794.99	1658.85
795.17	1712.10
795.35	1595.37
795.53	1742.82
795.71	1720.29
795.89	1632.23
796.07	1681.38
796.25	1648.61
796.43	1722.34
796.61	1681.38
796.80	1640.42
796.98	1654.76
797.16	1705.96
797.34	1644.52
797.52	1642.47
797.70	1732.58
797.88	1738.73
798.06	1587.18
798.24	1755.11
798.42	1699.81
798.60	1640.42
798.78	1624.04
798.96	1716.20
799.14	1613.80
799.32	1720.29
799.51	1675.24
799.69	1724.39
799.87	1740.77
800.05	1650.66
800.23	1544.17
800.41	1656.81
800.59	1644.52
800.77	1613.80
800.95	1581.03
801.13	1753.06
801.31	1630.18
801.49	1710.05
801.67	1621.99
801.85	1683.43
802.03	1630.18
802.21	1673.19
802.39	1626.09
802.57	1615.85
802.75	1660.90
802.93	1724.39
803.11	1576.94
803.29	1757.16
803.47	1646.57
803.65	1646.57
803.83	1597.42
804.01	1683.43
804.19	1611.75
804.37	1665.00
804.55	1626.09
804.73	1673.19
804.91	1597.42
805.09	1691.62
805.27	1685.48
805.45	1628.14
805.63	1675.24
805.81	1703.91
805.99	1701.86
806.17	1689.57
806.35	1578.98
806.53	1632.23
806.71	1716.20
806.89	1691.62
807.07	1771.49
807.25	1636.33
807.43	1677.29
807.61	1802.21
807.79	1699.81
807.97	1667.05
808.15	1650.66
808.33	1730.53
808.51	1769.44
808.69	1695.72
808.87	1638.38
809.05	1621.99
809.23	1583.08
809.41	1529.83
809.59	1613.80
809.77	1726.44
809.95	1656.81
810.13	1695.72
810.31	1665.00
810.49	1712.10
810.67	1673.19
810.84	1624.04
811.02	1654.76
811.20	1591.27
811.38	1708.01
811.56	1552.36
811.74	1679.33
811.92	1585.13
812.10	1644.52
812.28	1757.16
812.46	1701.86
812.64	1640.42
812.82	1601.51
813.00	1630.18
813.18	1652.71
813.36	1759.21
813.53	1607.66
813.71	1740.77
813.89	1679.33
814.07	1621.99
814.25	1710.05
814.43	1677.29
814.61	1671.14
814.79	1652.71
814.97	1675.24
815.15	1740.77
815.33	1671.14
815.50	1650.66
815.68	1644.52
815.86	1681.38
816.04	1705.96
816.22	1607.66
816.40	1765.35
816.58	1648.61
816.76	1683.43
816.94	1599.46
817.11	1640.42
817.29	1667.05
817.47	1605.61
817.65	1601.51
817.83	1695.72
818.01	1667.05
818.19	1593.32
818.37	1667.05
818.54	1777.64
818.72	1683.43
818.90	1710.05
819.08	1652.71
819.26	1699.81
819.44	1732.58
819.62	1628.14
819.80	1689.57
819.97	1699.81
820.15	1634.28
820.33	1564.65
820.51	1556.46
820.69	1712.10
820.87	1656.81
821.05	1710.05
821.22	1574.89
821.40	1695.72
821.58	1630.18
821.76	1683.43
821.94	1607.66
822.12	1628.14
822.29	1691.62
822.47	1671.14
822.65	1624.04
822.83	1613.80
823.01	1636.33
823.19	1654.76
823.36	1578.98
823.54	1630.18
823.72	1673.19
823.90	1728.49
824.08	1589.22
824.25	1648.61
824.43	1636.33
824.61	1576.94
824.79	1617.90
824.97	1529.83
825.15	1708.01
825.32	1634.28
825.50	1708.01
825.68	1593.32
825.86	1683.43
826.04	1617.90
826.21	1736.68
826.39	1671.14
826.57	1687.53
826.75	1705.96
826.93	1701.86
827.10	1718.25
827.28	1681.38
827.46	1738.73
827.64	1703.91
827.81	1607.66
827.99	1667.05
828.17	1644.52
828.35	1593.32
828.53	1675.24
828.70	1689.57
828.88	1646.57
829.06	1648.61
829.24	1667.05
829.41	1689.57
829.59	1779.68
829.77	1630.18
829.95	1740.77
830.12	1597.42
830.30	1691.62
830.48	1669.09
830.66	1626.09
830.84	1632.23
831.01	1732.58
831.19	1589.22
831.37	1656.81
831.55	1671.14
831.72	1771.49
831.90	1669.09
832.08	1640.42
832.25	1671.14
832.43	1710.05
832.61	1660.90
832.79	1609.70
832.96	1738.73
833.14	1699.81
833.32	1691.62
833.50	1609.70
833.67	1650.66
833.85	1554.41
834.03	1601.51
834.20	1621.99
834.38	1708.01
834.56	1673.19
834.74	1581.03
834.91	1654.76
835.09	1654.76
835.27	1587.18
835.44	1667.05
835.62	1603.56
835.80	1613.80
835.98	1609.70
836.15	1716.20
836.33	1626.09
836.51	1560.55
836.68	1593.32
836.86	1691.62
837.04	1716.20
837.21	1751.01
837.39	1675.24
837.57	1683.43
837.75	1650.66
837.92	1673.19
838.10	1617.90
838.28	1601.51
838.45	1648.61
838.63	1591.27
838.81	1671.14
838.98	1710.05
839.16	1730.53
839.34	1540.07
839.51	1630.18
839.69	1675.24
839.87	1593.32
840.04	1677.29
840.22	1957.86
840.40	1683.43
840.57	1667.05
840.75	1703.91
840.93	1597.42
841.10	1591.27
841.28	1691.62
841.46	1634.28
841.63	1677.29
841.81	1531.88
841.98	1550.31
842.16	1740.77
842.34	1642.47
842.51	1552.36
842.69	1699.81
842.87	1609.70
843.04	1681.38
843.22	1560.55
843.40	1636.33
843.57	1621.99
843.75	1576.94
843.92	1728.49
844.10	1710.05
844.28	1679.33
844.45	1656.81
844.63	1615.85
844.81	1665.00
844.98	1769.44
845.16	1708.01
845.33	1689.57
845.51	1671.14
845.69	1665.00
845.86	1691.62
846.04	1556.46
846.21	1609.70
846.39	1581.03
846.57	1615.85
846.74	1585.13
846.92	1677.29
847.09	1605.61
847.27	1581.03
847.45	1644.52
847.62	1640.42
847.80	1628.14
847.97	1697.77
848.15	1705.96
848.32	1615.85
848.50	1705.96
848.68	1593.32
848.85	1578.98
849.03	1482.73
849.20	1593.32
849.38	1626.09
849.56	1617.90
849.73	1591.27
849.91	1652.71
850.08	1650.66
850.26	1558.50
850.43	1597.42
850.61	1662.95
850.78	1472.49
850.96	1679.33
851.14	1441.77
851.31	1730.53
851.49	1621.99
851.66	1748.97
851.84	1550.31
852.01	1665.00
852.19	1597.42
852.36	1658.85
852.54	1673.19
852.71	1595.37
852.89	1689.57
853.07	1712.10
853.24	1634.28
853.42	1607.66
853.59	1689.57
853.77	1691.62
853.94	1640.42
854.12	1757.16
854.29	1554.41
854.47	1656.81
854.64	1705.96
854.82	1671.14
854.99	1683.43
855.17	1679.33
855.34	1540.07
855.52	1611.75
855.69	1773.54
855.87	1626.09
856.04	1642.47
856.22	1638.38
856.39	1572.84
856.57	1697.77
856.74	1658.85
856.92	1630.18
857.09	1599.46
857.27	1589.22
857.44	1710.05
857.62	1634.28
857.79	1673.19
857.97	1845.22
858.14	1648.61
858.32	1658.85
858.49	1609.70
858.67	1591.27
858.84	1552.36
859.02	1734.63
859.19	1558.50
859.37	1607.66
859.54	1601.51
859.72	1609.70
859.89	1591.27
860.06	1566.70
860.24	1630.18
860.41	1720.29
860.59	1642.47
860.76	1683.43
860.94	1499.11
861.11	1665.00
861.29	1665.00
861.46	1574.89
861.64	1593.32
861.81	1712.10
861.98	1558.50
862.16	1589.22
862.33	1581.03
862.51	1648.61
862.68	1529.83
862.86	1621.99
863.03	1601.51
863.21	1642.47
863.38	1589.22
863.55	1558.50
863.73	1667.05
863.90	1703.91
864.08	1630.18
864.25	1648.61
864.43	1683.43
864.60	1603.56
864.77	1605.61
864.95	1656.81
865.12	1626.09
865.30	1695.72
865.47	1738.73
865.64	1748.97
865.82	1646.57
865.99	1804.26
866.17	1753.06
866.34	1736.68
866.51	1546.22
866.69	1613.80
866.86	1769.44
867.04	1705.96
867.21	1665.00
867.38	1630.18
867.56	1669.09
867.73	1626.09
867.91	1634.28
868.08	1683.43
868.25	1601.51
868.43	1683.43
868.60	1699.81
868.78	1554.41
868.95	1601.51
869.12	1746.92
869.30	1597.42
869.47	1671.14
869.64	1679.33
869.82	1658.85
869.99	1701.86
870.16	1667.05
870.34	1667.05
870.51	1796.07
870.69	1626.09
870.86	1660.90
871.03	1685.48
871.21	1730.53
871.38	1720.29
871.55	1734.63
871.73	1662.95
871.90	1642.47
872.07	1613.80
872.25	1535.98
872.42	1566.70
872.59	1548.26
872.77	1617.90
872.94	1595.37
873.11	1658.85
873.29	1665.00
873.46	1621.99
873.63	1695.72
873.81	1628.14
873.98	1683.43
874.15	1578.98
874.33	1613.80
874.50	1712.10
874.67	1720.29
874.85	1593.32
875.02	1611.75
875.19	1644.52
875.37	1617.90
875.54	1593.32
875.71	1708.01
875.88	1685.48
876.06	1675.24
876.23	1630.18
876.40	1699.81
876.58	1665.00
876.75	1748.97
876.92	1650.66
877.10	1650.66
877.27	1634.28
877.44	1656.81
877.61	1650.66
877.79	1699.81
877.96	1675.24
878.13	1673.19
878.31	1576.94
878.48	1628.14
878.65	1765.35
878.82	1552.36
879.00	1675.24
879.17	1712.10
879.34	1626.09
879.51	1654.76
879.69	1634.28
879.86	1531.88
880.03	1671.14
880.21	1630.18
880.38	1699.81
880.55	1763.30
880.72	1748.97
880.90	1628.14
881.07	1589.22
881.24	1648.61
881.41	1572.84
881.59	1697.77
881.76	1644.52
881.93	1656.81
882.10	1642.47
882.28	1650.66
882.45	1699.81
882.62	1650.66
882.79	1646.57
882.96	1490.92
883.14	1718.25
883.31	1738.73
883.48	1595.37
883.65	1687.53
883.83	1650.66
884.00	1632.23
884.17	1642.47
884.34	1654.76
884.51	1697.77
884.69	1675.24
884.86	1601.51
885.03	1636.33
885.20	1525.74
885.38	1732.58
885.55	1738.73
885.72	1689.57
885.89	1593.32
886.06	1748.97
886.24	1640.42
886.41	1619.94
886.58	1624.04
886.75	1710.05
886.92	1650.66
887.10	1609.70
887.27	1593.32
887.44	1699.81
887.61	1761.25
887.78	1722.34
887.95	1796.07
888.13	1658.85
888.30	1691.62
888.47	1656.81
888.64	1689.57
888.81	1701.86
888.99	1570.79
889.16	1601.51
889.33	1597.42
889.50	1703.91
889.67	1632.23
889.84	1650.66
890.01	1716.20
890.19	1722.34
890.36	1732.58
890.53	1599.46
890.70	1662.95
890.87	1683.43
891.04	1648.61
891.22	1656.81
891.39	1617.90
891.56	1699.81
891.73	1650.66
891.90	1613.80
892.07	1486.83
892.24	1722.34
892.42	1597.42
892.59	1615.85
892.76	1638.38
892.93	1585.13
893.10	1650.66
893.27	1667.05
893.44	1591.27
893.61	1683.43
893.79	1601.51
893.96	1607.66
894.13	1568.74
894.30	1611.75
894.47	1716.20
894.64	1705.96
894.81	1554.41
894.98	1648.61
895.15	1720.29
895.33	1673.19
895.50	1507.30
895.67	1566.70
895.84	1599.46
896.01	1662.95
896.18	1474.54
896.35	1681.38
896.52	1597.42
896.69	1609.70
896.86	1630.18
897.04	1660.90
897.21	1677.29
897.38	1685.48
897.55	1609.70
897.72	1685.48
897.89	1673.19
898.06	1693.67
898.23	1613.80
898.40	1650.66
898.57	1675.24
898.74	1576.94
898.91	1619.94
899.08	1562.60
899.26	1691.62
899.43	1720.29
899.60	1583.08
899.77	1648.61
899.94	1581.03
900.11	1699.81
900.28	1611.75
900.45	1634.28
900.62	1574.89
900.79	1611.75
900.96	1720.29
901.13	1638.38
901.30	1558.50
901.47	1544.17
901.64	1638.38
901.81	1757.16
901.98	1595.37
902.15	1683.43
902.32	1626.09
902.49	1570.79
902.66	1753.06
902.83	1683.43
903.01	1632.23
903.18	1617.90
903.35	1578.98
903.52	1601.51
903.69	1689.57
903.86	1593.32
904.03	1595.37
904.20	1728.49
904.37	1777.64
904.54	1550.31
904.71	1591.27
904.88	1658.85
905.05	1574.89
905.22	1650.66
905.39	1568.74
905.56	1593.32
905.73	1605.61
905.90	1613.80
906.07	1615.85
906.24	1640.42
906.41	1689.57
906.58	1726.44
906.75	1611.75
906.92	1576.94
907.09	1626.09
907.26	1658.85
907.43	1550.31
907.60	1568.74
907.77	1667.05
907.93	1732.58
908.10	1646.57
908.27	1712.10
908.44	1609.70
908.61	1595.37
908.78	1576.94
908.95	1779.68
909.12	1634.28
909.29	1621.99
909.46	1630.18
909.63	1763.30
909.80	1632.23
909.97	1638.38
910.14	1632.23
910.31	1673.19
910.48	1621.99
910.65	1640.42
910.82	1583.08
910.99	1617.90
911.16	1687.53
911.33	1654.76
911.50	1556.46
911.66	1640.42
911.83	1708.01
912.00	1607.66
912.17	1560.55
912.34	1593.32
912.51	1667.05
912.68	1578.98
912.85	1656.81
913.02	1615.85
913.19	1566.70
913.36	1660.90
913.53	1726.44
913.70	1708.01
913.86	1671.14
914.03	1712.10
914.20	1685.48
914.37	1550.31
914.54	1703.91
914.71	1738.73
914.88	1726.44
915.05	1611.75
915.22	1591.27
915.39	1677.29
915.55	1681.38
915.72	1572.84
915.89	1665.00
916.06	1581.03
916.23	1648.61
916.40	1714.15
916.57	1613.80
916.74	1636.33
916.91	1654.76
917.07	1552.36
917.24	1531.88
917.41	1667.05
917.58	1677.29
917.75	1607.66
917.92	1531.88
918.09	1675.24
918.26	1605.61
918.42	1601.51
918.59	1683.43
918.76	1605.61
918.93	1656.81
919.10	1621.99
919.27	1726.44
919.44	1767.40
919.60	1638.38
919.77	1710.05
919.94	1595.37
920.11	1578.98
920.28	1695.72
920.45	1621.99
920.61	1585.13
920.78	1609.70
920.95	1650.66
921.12	1634.28
921.29	1626.09
921.46	1529.83
921.62	1597.42
921.79	1667.05
921.96	1671.14
922.13	1681.38
922.30	1613.80
922.47	1619.94
922.63	1619.94
922.80	1605.61
922.97	1658.85
923.14	1488.87
923.31	1642.47
923.47	1581.03
923.64	1675.24
923.81	1601.51
923.98	1654.76
924.15	1550.31
924.32	1652.71
924.48	1642.47
924.65	1740.77
924.82	1597.42
924.99	1595.37
925.15	1560.55
925.32	1683.43
925.49	1593.32
925.66	1605.61
925.83	1617.90
925.99	1671.14
926.16	1732.58
926.33	1671.14
926.50	1583.08
926.67	1603.56
926.83	1595.37
927.00	1640.42
927.17	1662.95
927.34	1576.94
927.50	1636.33
927.67	1791.97
927.84	1732.58
928.01	1695.72
928.17	1665.00
928.34	1609.70
928.51	1607.66
928.68	1599.46
928.84	1558.50
929.01	1646.57
929.18	1566.70
929.35	1703.91
929.51	1589.22
929.68	1630.18
929.85	1611.75
930.02	1703.91
930.18	1576.94
930.35	1628.14
930.52	1697.77
930.69	1703.91
930.85	1691.62
931.02	1531.88
931.19	1679.33
931.36	1609.70
931.52	1697.77
931.69	1619.94
931.86	1624.04
932.02	1613.80
932.19	1634.28
932.36	1712.10
932.53	1640.42
932.69	1593.32
932.86	1744.87
933.03	1576.94
933.19	1398.76
933.36	1628.14
933.53	1691.62
933.70	1654.76
933.86	1667.05
934.03	1779.68
934.20	1619.94
934.36	1689.57
934.53	1542.12
934.70	1548.26
934.86	1652.71
935.03	1597.42
935.20	1617.90
935.36	1624.04
935.53	1585.13
935.70	1617.90
935.86	1724.39
936.03	1581.03
936.20	1634.28
936.36	1626.09
936.53	1603.56
936.70	1630.18
936.86	1765.35
937.03	1636.33
937.20	1601.51
937.36	1705.96
937.53	1531.88
937.70	1601.51
937.86	1583.08
938.03	1611.75
938.20	1808.36
938.36	1648.61
938.53	1679.33
938.70	1662.95
938.86	1624.04
939.03	1591.27
939.20	1540.07
939.36	1527.78
939.53	1638.38
939.70	1861.60
939.86	1656.81
940.03	1583.08
940.19	1599.46
940.36	1615.85
940.53	1703.91
940.69	1591.27
940.86	1697.77
941.03	1671.14
941.19	1615.85
941.36	1619.94
941.52	1619.94
941.69	1660.90
941.86	1605.61
942.02	1601.51
942.19	1675.24
942.35	1654.76
942.52	1665.00
942.69	1673.19
942.85	1542.12
943.02	1560.55
943.18	1667.05
943.35	1624.04
943.52	1644.52
943.68	1617.90
943.85	1669.09
944.01	1638.38
944.18	1669.09
944.35	1675.24
944.51	1615.85
944.68	1630.18
944.84	1624.04
945.01	1538.02
945.17	1671.14
945.34	1685.48
945.51	1781.73
945.67	1650.66
945.84	1693.67
946.00	1550.31
946.17	1628.14
946.33	1617.90
946.50	1718.25
946.67	1654.76
946.83	1642.47
947.00	1679.33
947.16	1554.41
947.33	1619.94
947.49	1597.42
947.66	1531.88
947.82	1730.53
947.99	1533.93
948.16	1611.75
948.32	1626.09
948.49	1665.00
948.65	1632.23
948.82	1638.38
948.98	1628.14
949.15	1570.79
949.31	1685.48
949.48	1609.70
949.64	1617.90
949.81	1624.04
949.97	1617.90
950.14	1662.95
950.30	1585.13
950.47	1634.28
950.63	1525.74
950.80	1650.66
950.96	1665.00
951.13	1601.51
951.30	1578.98
951.46	1671.14
951.63	1738.73
951.79	1675.24
951.96	1679.33
952.12	1662.95
952.29	1765.35
952.45	1601.51
952.62	1630.18
952.78	1609.70
952.94	1538.02
953.11	1523.69
953.27	1546.22
953.44	1734.63
953.60	1621.99
953.77	1722.34
953.93	1574.89
954.10	1667.05
954.26	1650.66
954.43	1603.56
954.59	1726.44
954.76	1771.49
954.92	1611.75
955.09	1646.57
955.25	1544.17
955.42	1572.84
955.58	1667.05
955.75	1650.66
955.91	1568.74
956.07	1591.27
956.24	1574.89
956.40	1708.01
956.57	1734.63
956.73	1689.57
956.90	1716.20
957.06	1607.66
957.23	1597.42
957.39	1603.56
957.56	1619.94
957.72	1619.94
957.88	1521.64
958.05	1677.29
958.21	1687.53
958.38	1648.61
958.54	1650.66
958.71	1824.74
958.87	1624.04
959.03	1589.22
959.20	1615.85
959.36	1613.80
959.53	1607.66
959.69	1556.46
959.85	1697.77
960.02	1505.26
960.18	1624.04
960.35	1609.70
960.51	1669.09
960.68	1550.31
960.84	1634.28
961.00	1523.69
961.17	1531.88
961.33	1617.90
961.50	1556.46
961.66	1671.14
961.82	1619.94
961.99	1652.71
962.15	1652.71
962.31	1634.28
962.48	1628.14
962.64	1636.33
962.81	1630.18
962.97	1585.13
963.13	1624.04
963.30	1585.13
963.46	1642.47
963.62	1585.13
963.79	1683.43
963.95	1568.74
964.12	1587.18
964.28	1632.23
964.44	1609.70
964.61	1683.43
964.77	1615.85
964.93	1744.87
965.10	1644.52
965.26	1597.42
965.42	1566.70
965.59	1621.99
965.75	1597.42
965.92	1630.18
966.08	1636.33
966.24	1640.42
966.41	1697.77
966.57	1695.72
966.73	1714.15
966.90	1695.72
967.06	1630.18
967.22	1544.17
967.39	1642.47
967.55	1671.14
967.71	1669.09
967.88	1564.65
968.04	1542.12
968.20	1527.78
968.37	1603.56
968.53	1644.52
968.69	1646.57
968.85	1652.71
969.02	1636.33
969.18	1605.61
969.34	1662.95
969.51	1581.03
969.67	1687.53
969.83	1601.51
970.00	1751.01
970.16	1683.43
970.32	1665.00
970.48	1683.43
970.65	1597.42
970.81	1554.41
970.97	1640.42
971.14	1525.74
971.30	1673.19
971.46	1574.89
971.63	1605.61
971.79	1658.85
971.95	1650.66
972.11	1619.94
972.28	1540.07
972.44	1628.14
972.60	1570.79
972.76	1611.75
972.93	1609.70
973.09	1691.62
973.25	1660.90
973.42	1617.90
973.58	1687.53
973.74	1630.18
973.90	1759.21
974.07	1636.33
974.23	1687.53
974.39	1675.24
974.55	1630.18
974.72	1562.60
974.88	1548.26
975.04	1681.38
975.20	1667.05
975.37	1609.70
975.53	1642.47
975.69	1658.85
975.85	1609.70
976.01	1576.94
976.18	1640.42
976.34	1609.70
976.50	1599.46
976.66	1728.49
976.83	1607.66
976.99	1591.27
977.15	1642.47
977.31	1605.61
977.47	1732.58
977.64	1681.38
977.80	1601.51
977.96	1613.80
978.12	1626.09
978.29	1667.05
978.45	1542.12
978.61	1591.27
978.77	1619.94
978.93	1576.94
979.10	1652.71
979.26	1644.52
979.42	1574.89
979.58	1521.64
979.74	1603.56
979.91	1665.00
980.07	1576.94
980.23	1613.80
980.39	1533.93
980.55	1621.99
980.71	1638.38
980.88	1599.46
981.04	1611.75
981.20	1615.85
981.36	1673.19
981.52	1634.28
981.68	1560.55
981.85	1646.57
982.01	1662.95
982.17	1544.17
982.33	1566.70
982.49	1716.20
982.65	1583.08
982.82	1621.99
982.98	1527.78
983.14	1533.93
983.30	1685.48
983.46	1665.00
983.62	1665.00
983.79	1578.98
983.95	1593.32
984.11	1507.30
984.27	1679.33
984.43	1601.51
984.59	1597.42
984.75	1673.19
984.91	1601.51
985.08	1667.05
985.24	1583.08
985.40	1548.26
985.56	1632.23
985.72	1673.19
985.88	1730.53
986.04	1570.79
986.20	1595.37
986.37	1638.38
986.53	1458.15
986.69	1652.71
986.85	1607.66
987.01	1609.70
987.17	1681.38
987.33	1624.04
987.49	1605.61
987.65	1615.85
987.82	1578.98
987.98	1552.36
988.14	1615.85
988.30	1685.48
988.46	1560.55
988.62	1646.57
988.78	1591.27
988.94	1591.27
989.10	1617.90
989.26	1593.32
989.42	1650.66
989.59	1585.13
989.75	1636.33
989.91	1701.86
990.07	1513.45
990.23	1634.28
990.39	1632.23
990.55	1644.52
990.71	1576.94
990.87	1568.74
991.03	1644.52
991.19	1574.89
991.35	1617.90
991.51	1634.28
991.67	1617.90
991.83	1630.18
992.00	1511.40
992.16	1574.89
992.32	1638.38
992.48	1570.79
992.64	1527.78
992.80	1646.57
992.96	1638.38
993.12	1626.09
993.28	1708.01
993.44	1605.61
993.60	1630.18
993.76	1624.04
993.92	1665.00
994.08	1728.49
994.24	1646.57
994.40	1585.13
994.56	1650.66
994.72	1597.42
994.88	1630.18
995.04	1662.95
995.20	1589.22
995.36	1531.88
995.52	1687.53
995.68	1609.70
995.84	1566.70
996.00	1697.77
996.16	1617.90
996.32	1521.64
996.48	1585.13
996.64	1683.43
996.80	1601.51
996.96	1578.98
997.12	1624.04
997.28	1585.13
997.44	1560.55
997.60	1607.66
997.76	1662.95
997.92	1693.67
998.08	1638.38
998.24	1564.65
998.40	1626.09
998.56	1646.57
998.72	1558.50
998.88	1583.08
999.04	1511.40
999.20	1628.14
999.36	1640.42
999.52	1685.48
999.68	1644.52
999.84	1777.64
1000.00	1646.57
1000.16	1703.91
1000.32	1597.42
1000.48	1697.77
1000.64	1552.36
1000.80	1511.40
1000.95	1589.22
1001.11	1642.47
1001.27	1554.41
1001.43	1587.18
1001.59	1546.22
1001.75	1621.99
1001.91	1583.08
1002.07	1535.98
1002.23	1617.90
1002.39	1667.05
1002.55	1628.14
1002.71	1642.47
1002.87	1585.13
1003.03	1556.46
1003.19	1595.37
1003.34	1609.70
1003.50	1591.27
1003.66	1662.95
1003.82	1621.99
1003.98	1669.09
1004.14	1650.66
1004.30	1544.17
1004.46	1619.94
1004.62	1572.84
1004.78	1626.09
1004.94	1609.70
1005.09	1705.96
1005.25	1748.97
1005.41	1546.22
1005.57	1607.66
1005.73	1585.13
1005.89	1535.98
1006.05	1736.68
1006.21	1671.14
1006.37	1607.66
1006.52	1546.22
1006.68	1562.60
1006.84	1732.58
1007.00	1492.97
1007.16	1617.90
1007.32	1634.28
1007.48	1607.66
1007.64	1568.74
1007.79	1677.29
1007.95	1568.74
1008.11	1671.14
1008.27	1619.94
1008.43	1558.50
1008.59	1621.99
1008.75	1751.01
1008.91	1607.66
1009.06	1554.41
1009.22	1691.62
1009.38	1591.27
1009.54	1615.85
1009.70	1662.95
1009.86	1595.37
1010.01	1662.95
1010.17	1558.50
1010.33	1587.18
1010.49	1581.03
1010.65	1685.48
1010.81	1636.33
1010.96	1628.14
1011.12	1597.42
1011.28	1611.75
1011.44	1638.38
1011.60	1656.81
1011.76	1613.80
1011.91	1718.25
1012.07	1568.74
1012.23	1527.78
1012.39	1531.88
1012.55	1642.47
1012.71	1607.66
1012.86	1607.66
1013.02	1662.95
1013.18	1576.94
1013.34	1529.83
1013.50	1650.66
1013.65	1621.99
1013.81	1511.40
1013.97	1568.74
1014.13	1660.90
1014.29	1540.07
1014.44	1679.33
1014.60	1535.98
1014.76	1617.90
1014.92	1626.09
1015.07	1595.37
1015.23	1566.70
1015.39	1603.56
1015.55	1544.17
1015.71	1648.61
1015.86	1605.61
1016.02	1570.79
1016.18	1523.69
1016.34	1630.18
1016.49	1617.90
1016.65	1697.77
1016.81	1519.59
1016.97	1634.28
1017.12	1667.05
1017.28	1562.60
1017.44	1591.27
1017.60	1593.32
1017.75	1630.18
1017.91	1669.09
1018.07	1578.98
1018.23	1578.98
1018.38	1609.70
1018.54	1638.38
1018.70	1624.04
1018.86	1626.09
1019.01	1626.09
1019.17	1601.51
1019.33	1681.38
1019.49	1648.61
1019.64	1626.09
1019.80	1644.52
1019.96	1609.70
1020.12	1591.27
1020.27	1654.76
1020.43	1574.89
1020.59	1681.38
1020.74	1699.81
1020.90	1728.49
1021.06	1554.41
1021.22	1642.47
1021.37	1628.14
1021.53	1527.78
1021.69	1634.28
1021.84	1535.98
1022.00	1587.18
1022.16	1605.61
1022.31	1650.66
1022.47	1654.76
1022.63	1683.43
1022.79	1544.17
1022.94	1554.41
1023.10	1652.71
1023.26	1617.90
1023.41	1601.51
1023.57	1601.51
1023.73	1667.05
1023.88	1617.90
1024.04	1597.42
1024.20	1607.66
1024.35	1681.38
1024.51	1568.74
1024.67	1652.71
1024.82	1671.14
1024.98	1593.32
1025.14	1677.29
1025.29	1599.46
1025.45	1677.29
1025.61	1540.07
1025.76	1601.51
1025.92	1613.80
1026.08	1617.90
1026.23	1679.33
1026.39	1685.48
1026.55	1626.09
1026.70	1564.65
1026.86	1660.90
1027.02	1683.43
1027.17	1675.24
1027.33	1617.90
1027.48	1628.14
1027.64	1597.42
1027.80	1650.66
1027.95	1679.33
1028.11	1644.52
1028.27	1648.61
1028.42	1658.85
1028.58	1626.09
1028.73	1621.99
1028.89	1492.97
1029.05	1691.62
1029.20	1673.19
>>>>>End Processed Spectral Data<<<<<
