SpectraSuite Data File
++++++++++++++++++++++++++++++++++++
Date: Fri Jun 02 14:52:22 CEST 2017
User: INFO_000
Dark Spectrum Present: No
Reference Spectrum Present: No
Number of Sampled Component Spectra: 1
Spectrometers: USB4H00879
Integration Time (usec): 80000 (USB4H00879)
Spectra Averaged: 1 (USB4H00879)
Boxcar Smoothing: 0 (USB4H00879)
Correct for Electrical Dark: No (USB4H00879)
Strobe/Lamp Enabled: No (USB4H00879)
Correct for Detector Non-linearity: No (USB4H00879)
Correct for Stray Light: No (USB4H00879)
Number of Pixels in Processed Spectrum: 3648
>>>>>Begin Processed Spectral Data<<<<<
345.13	1300.46
345.34	1300.46
345.56	1300.46
345.78	1253.36
345.99	1302.51
346.21	1716.20
346.42	1726.44
346.64	1691.62
346.86	1779.68
347.07	1742.82
347.29	1708.01
347.50	1652.71
347.72	1640.42
347.94	1753.06
348.15	1615.85
348.37	1630.18
348.59	1642.47
348.80	1626.09
349.02	1716.20
349.23	1794.02
349.45	1730.53
349.67	1822.69
349.88	1755.11
350.10	1845.22
350.31	1746.92
350.53	1691.62
350.75	1902.56
350.96	1621.99
351.18	1708.01
351.39	1740.77
351.61	1548.26
351.82	1834.98
352.04	1736.68
352.26	1679.33
352.47	1722.34
352.69	1761.25
352.90	1597.42
353.12	1673.19
353.34	1650.66
353.55	1785.83
353.77	1724.39
353.98	1687.53
354.20	1671.14
354.41	1761.25
354.63	1769.44
354.85	1896.42
355.06	1736.68
355.28	1640.42
355.49	1738.73
355.71	1701.86
355.92	1744.87
356.14	1726.44
356.35	1660.90
356.57	1648.61
356.79	1732.58
357.00	1673.19
357.22	1808.36
357.43	1693.67
357.65	1753.06
357.86	1662.95
358.08	1685.48
358.29	1728.49
358.51	1796.07
358.72	1791.97
358.94	1593.32
359.16	1720.29
359.37	1730.53
359.59	1718.25
359.80	1748.97
360.02	1691.62
360.23	1777.64
360.45	1787.88
360.66	1687.53
360.88	1564.65
361.09	1722.34
361.31	1701.86
361.52	1742.82
361.74	1732.58
361.95	1826.79
362.17	1730.53
362.38	1808.36
362.60	1746.92
362.81	1679.33
363.03	1615.85
363.24	1697.77
363.46	1832.93
363.67	1781.73
363.89	1699.81
364.10	1679.33
364.32	1699.81
364.53	1804.26
364.75	1599.46
364.96	1703.91
365.18	1761.25
365.39	1738.73
365.61	1652.71
365.82	1820.64
366.04	1621.99
366.25	1693.67
366.47	1740.77
366.68	1773.54
366.90	1654.76
367.11	1806.31
367.33	1791.97
367.54	1667.05
367.76	1710.05
367.97	1769.44
368.19	1734.63
368.40	1691.62
368.62	1574.89
368.83	1632.23
369.05	1751.01
369.26	1714.15
369.48	1589.22
369.69	1679.33
369.91	1748.97
370.12	1759.21
370.33	1761.25
370.55	1677.29
370.76	1685.48
370.98	1708.01
371.19	1720.29
371.41	1732.58
371.62	1771.49
371.84	1644.52
372.05	1853.41
372.27	1667.05
372.48	1695.72
372.69	1738.73
372.91	1708.01
373.12	1783.78
373.34	1642.47
373.55	1724.39
373.77	1724.39
373.98	1738.73
374.20	1798.12
374.41	1765.35
374.62	1701.86
374.84	1748.97
375.05	1724.39
375.27	1685.48
375.48	1652.71
375.70	1728.49
375.91	1763.30
376.12	1724.39
376.34	1644.52
376.55	1734.63
376.77	1740.77
376.98	1630.18
377.19	1613.80
377.41	1626.09
377.62	1667.05
377.84	1763.30
378.05	1748.97
378.27	1669.09
378.48	1900.52
378.69	1843.17
378.91	1828.84
379.12	1703.91
379.34	1665.00
379.55	1732.58
379.76	1732.58
379.98	1683.43
380.19	1742.82
380.41	1722.34
380.62	1781.73
380.83	1662.95
381.05	1593.32
381.26	1834.98
381.47	1652.71
381.69	1683.43
381.90	1794.02
382.12	1716.20
382.33	1728.49
382.54	1744.87
382.76	1798.12
382.97	1681.38
383.19	1634.28
383.40	1693.67
383.61	1675.24
383.83	1705.96
384.04	1665.00
384.25	1679.33
384.47	1783.78
384.68	1728.49
384.89	1689.57
385.11	1634.28
385.32	1617.90
385.54	1687.53
385.75	1681.38
385.96	1685.48
386.18	1724.39
386.39	1697.77
386.60	1658.85
386.82	1652.71
387.03	1654.76
387.24	1718.25
387.46	1693.67
387.67	1654.76
387.88	1693.67
388.10	1683.43
388.31	1742.82
388.52	1822.69
388.74	1701.86
388.95	1679.33
389.16	1759.21
389.38	1726.44
389.59	1722.34
389.80	1775.59
390.02	1675.24
390.23	1771.49
390.44	1748.97
390.66	1765.35
390.87	1642.47
391.08	1695.72
391.30	1734.63
391.51	1722.34
391.72	1716.20
391.94	1791.97
392.15	1646.57
392.36	1658.85
392.58	1701.86
392.79	1716.20
393.00	1736.68
393.22	1744.87
393.43	1777.64
393.64	1785.83
393.85	1746.92
394.07	1642.47
394.28	1667.05
394.49	1738.73
394.71	1777.64
394.92	1724.39
395.13	1617.90
395.35	1642.47
395.56	1712.10
395.77	1746.92
395.98	1695.72
396.20	1714.15
396.41	1712.10
396.62	1712.10
396.84	1642.47
397.05	1714.15
397.26	1691.62
397.47	1796.07
397.69	1624.04
397.90	1839.08
398.11	1771.49
398.32	1646.57
398.54	1697.77
398.75	1683.43
398.96	1691.62
399.18	1814.50
399.39	1679.33
399.60	1712.10
399.81	1662.95
400.03	1615.85
400.24	1912.80
400.45	1740.77
400.66	1736.68
400.88	1648.61
401.09	1937.38
401.30	1609.70
401.51	1820.64
401.73	1794.02
401.94	1699.81
402.15	1564.65
402.36	1718.25
402.58	1769.44
402.79	1714.15
403.00	1679.33
403.21	1775.59
403.43	1740.77
403.64	1794.02
403.85	1662.95
404.06	1697.77
404.27	1634.28
404.49	1656.81
404.70	1677.29
404.91	1822.69
405.12	1683.43
405.34	1718.25
405.55	1740.77
405.76	1591.27
405.97	1714.15
406.19	1834.98
406.40	1617.90
406.61	1742.82
406.82	1644.52
407.03	1726.44
407.25	1611.75
407.46	1794.02
407.67	1753.06
407.88	1816.55
408.09	1667.05
408.31	1697.77
408.52	1785.83
408.73	1689.57
408.94	1722.34
409.15	1720.29
409.37	1740.77
409.58	1738.73
409.79	1671.14
410.00	1882.08
410.21	1613.80
410.43	1656.81
410.64	1667.05
410.85	1732.58
411.06	1751.01
411.27	1687.53
411.48	1845.22
411.70	1687.53
411.91	1720.29
412.12	1773.54
412.33	1847.27
412.54	1634.28
412.76	1660.90
412.97	1787.88
413.18	1634.28
413.39	1763.30
413.60	1816.55
413.81	1728.49
414.03	1597.42
414.24	1656.81
414.45	1865.70
414.66	1685.48
414.87	1761.25
415.08	1691.62
415.30	1716.20
415.51	1695.72
415.72	1757.16
415.93	1667.05
416.14	1771.49
416.35	1763.30
416.56	1777.64
416.78	1722.34
416.99	1615.85
417.20	1751.01
417.41	1787.88
417.62	1705.96
417.83	1767.40
418.04	1724.39
418.26	1769.44
418.47	1695.72
418.68	1771.49
418.89	1708.01
419.10	1843.17
419.31	1716.20
419.52	1660.90
419.73	1724.39
419.95	1681.38
420.16	1673.19
420.37	1703.91
420.58	1722.34
420.79	1632.23
421.00	1656.81
421.21	1671.14
421.42	1689.57
421.63	1781.73
421.85	1648.61
422.06	1671.14
422.27	1724.39
422.48	1726.44
422.69	1716.20
422.90	1568.74
423.11	1615.85
423.32	1814.50
423.53	1822.69
423.75	1619.94
423.96	1730.53
424.17	1789.92
424.38	1806.31
424.59	1665.00
424.80	1697.77
425.01	1652.71
425.22	1552.36
425.43	1757.16
425.64	1802.21
425.85	1761.25
426.06	1724.39
426.28	1712.10
426.49	1730.53
426.70	1697.77
426.91	1679.33
427.12	1701.86
427.33	1646.57
427.54	1652.71
427.75	1716.20
427.96	1751.01
428.17	1748.97
428.38	1673.19
428.59	1671.14
428.80	1624.04
429.01	1665.00
429.23	1757.16
429.44	1605.61
429.65	1744.87
429.86	1701.86
430.07	1705.96
430.28	1689.57
430.49	1736.68
430.70	1710.05
430.91	1791.97
431.12	1570.79
431.33	1689.57
431.54	1687.53
431.75	1708.01
431.96	1642.47
432.17	1777.64
432.38	1738.73
432.59	1808.36
432.80	1773.54
433.01	1738.73
433.22	1636.33
433.43	1738.73
433.64	1757.16
433.85	1759.21
434.06	1755.11
434.27	1654.76
434.49	1679.33
434.70	1718.25
434.91	1722.34
435.12	1648.61
435.33	1722.34
435.54	1708.01
435.75	1595.37
435.96	1675.24
436.17	1730.53
436.38	1736.68
436.59	1708.01
436.80	1665.00
437.01	1785.83
437.22	1773.54
437.43	1761.25
437.64	1683.43
437.85	1675.24
438.06	1757.16
438.27	1718.25
438.48	1656.81
438.69	1656.81
438.90	1642.47
439.11	1617.90
439.32	1812.45
439.53	1648.61
439.74	1695.72
439.95	1665.00
440.16	1626.09
440.37	1751.01
440.57	1712.10
440.78	1746.92
440.99	1712.10
441.20	1714.15
441.41	1601.51
441.62	1679.33
441.83	1578.98
442.04	1611.75
442.25	1724.39
442.46	1572.84
442.67	1640.42
442.88	1847.27
443.09	1691.62
443.30	1628.14
443.51	1693.67
443.72	1705.96
443.93	1681.38
444.14	1794.02
444.35	1644.52
444.56	1669.09
444.77	1640.42
444.98	1748.97
445.19	1652.71
445.40	1658.85
445.61	1673.19
445.81	1675.24
446.02	1753.06
446.23	1693.67
446.44	1562.60
446.65	1681.38
446.86	1720.29
447.07	1902.56
447.28	1595.37
447.49	1695.72
447.70	1656.81
447.91	1744.87
448.12	1687.53
448.33	1763.30
448.54	1685.48
448.74	1660.90
448.95	1603.56
449.16	1777.64
449.37	1757.16
449.58	1722.34
449.79	1738.73
450.00	1660.90
450.21	1683.43
450.42	1675.24
450.63	1677.29
450.84	1665.00
451.05	1732.58
451.25	1646.57
451.46	1634.28
451.67	1654.76
451.88	1736.68
452.09	1677.29
452.30	1695.72
452.51	1638.38
452.72	1751.01
452.93	1820.64
453.13	1685.48
453.34	1671.14
453.55	1673.19
453.76	1703.91
453.97	1708.01
454.18	1601.51
454.39	1781.73
454.60	1701.86
454.81	1769.44
455.01	1693.67
455.22	1566.70
455.43	1673.19
455.64	1765.35
455.85	1769.44
456.06	1800.16
456.27	1769.44
456.48	1654.76
456.68	1716.20
456.89	1824.74
457.10	1689.57
457.31	1693.67
457.52	1757.16
457.73	1726.44
457.94	1687.53
458.14	1581.03
458.35	1761.25
458.56	1738.73
458.77	1667.05
458.98	1673.19
459.19	1632.23
459.39	1679.33
459.60	1644.52
459.81	1675.24
460.02	1753.06
460.23	1802.21
460.44	1691.62
460.65	1714.15
460.85	1650.66
461.06	1685.48
461.27	1662.95
461.48	1695.72
461.69	1640.42
461.89	1511.40
462.10	1691.62
462.31	1601.51
462.52	1640.42
462.73	1617.90
462.94	1689.57
463.14	1669.09
463.35	1652.71
463.56	1781.73
463.77	1765.35
463.98	1605.61
464.18	1650.66
464.39	1761.25
464.60	1691.62
464.81	1665.00
465.02	1712.10
465.23	1718.25
465.43	1728.49
465.64	1705.96
465.85	1683.43
466.06	1724.39
466.27	1701.86
466.47	1689.57
466.68	1740.77
466.89	1658.85
467.10	1619.94
467.30	1621.99
467.51	1777.64
467.72	1748.97
467.93	1597.42
468.14	1630.18
468.34	1685.48
468.55	1658.85
468.76	1755.11
468.97	1605.61
469.17	1763.30
469.38	1755.11
469.59	1728.49
469.80	1695.72
470.01	1673.19
470.21	1699.81
470.42	1689.57
470.63	1679.33
470.84	1732.58
471.04	1691.62
471.25	1722.34
471.46	1773.54
471.67	1746.92
471.87	1630.18
472.08	1785.83
472.29	1728.49
472.50	1708.01
472.70	1712.10
472.91	1740.77
473.12	1740.77
473.33	1656.81
473.53	1710.05
473.74	1665.00
473.95	1677.29
474.16	1640.42
474.36	1617.90
474.57	1759.21
474.78	1591.27
474.99	1845.22
475.19	1693.67
475.40	1712.10
475.61	1691.62
475.81	1738.73
476.02	1671.14
476.23	1681.38
476.44	1671.14
476.64	1658.85
476.85	1697.77
477.06	1603.56
477.27	1665.00
477.47	1740.77
477.68	1765.35
477.89	1814.50
478.09	1724.39
478.30	1685.48
478.51	1683.43
478.71	1624.04
478.92	1724.39
479.13	1732.58
479.34	1601.51
479.54	1728.49
479.75	1712.10
479.96	1705.96
480.16	1734.63
480.37	1648.61
480.58	1660.90
480.78	1853.41
480.99	1642.47
481.20	1675.24
481.41	1742.82
481.61	1697.77
481.82	1720.29
482.03	1675.24
482.23	1650.66
482.44	1757.16
482.65	1796.07
482.85	1794.02
483.06	1726.44
483.27	1708.01
483.47	1753.06
483.68	1695.72
483.89	1650.66
484.09	1650.66
484.30	1677.29
484.51	1732.58
484.71	1652.71
484.92	1640.42
485.13	1738.73
485.33	1628.14
485.54	1701.86
485.75	1771.49
485.95	1814.50
486.16	1699.81
486.37	1687.53
486.57	1615.85
486.78	1718.25
486.98	1703.91
487.19	1669.09
487.40	1746.92
487.60	1638.38
487.81	1628.14
488.02	1601.51
488.22	1648.61
488.43	1716.20
488.64	1638.38
488.84	1642.47
489.05	1687.53
489.25	1646.57
489.46	1705.96
489.67	1730.53
489.87	1755.11
490.08	1691.62
490.29	1609.70
490.49	1818.60
490.70	1773.54
490.90	1681.38
491.11	1626.09
491.32	1667.05
491.52	1708.01
491.73	1703.91
491.94	1746.92
492.14	1619.94
492.35	1630.18
492.55	1845.22
492.76	1683.43
492.97	1646.57
493.17	1736.68
493.38	1736.68
493.58	1724.39
493.79	1675.24
494.00	1703.91
494.20	1581.03
494.41	1720.29
494.61	1658.85
494.82	1710.05
495.02	1662.95
495.23	1785.83
495.44	1630.18
495.64	1744.87
495.85	1656.81
496.05	1728.49
496.26	1699.81
496.47	1748.97
496.67	1697.77
496.88	1798.12
497.08	1652.71
497.29	1640.42
497.49	1763.30
497.70	1621.99
497.91	1646.57
498.11	1759.21
498.32	1705.96
498.52	1697.77
498.73	1626.09
498.93	1783.78
499.14	1718.25
499.34	1771.49
499.55	1714.15
499.76	1726.44
499.96	1673.19
500.17	1738.73
500.37	1781.73
500.58	1669.09
500.78	1673.19
500.99	1708.01
501.19	1732.58
501.40	1751.01
501.60	1593.32
501.81	1652.71
502.02	1683.43
502.22	1720.29
502.43	1695.72
502.63	1804.26
502.84	1708.01
503.04	1705.96
503.25	1685.48
503.45	1751.01
503.66	1628.14
503.86	1650.66
504.07	1662.95
504.27	1658.85
504.48	1716.20
504.68	1701.86
504.89	1781.73
505.09	1613.80
505.30	1691.62
505.50	1751.01
505.71	1669.09
505.91	1728.49
506.12	1738.73
506.32	1732.58
506.53	1607.66
506.73	1699.81
506.94	1652.71
507.14	1665.00
507.35	1685.48
507.55	1624.04
507.76	1718.25
507.96	1585.13
508.17	1759.21
508.37	1665.00
508.58	1736.68
508.78	1656.81
508.99	1814.50
509.19	1751.01
509.40	1742.82
509.60	1720.29
509.81	1818.60
510.01	1675.24
510.22	1681.38
510.42	1722.34
510.63	1738.73
510.83	1804.26
511.04	1646.57
511.24	1779.68
511.44	1697.77
511.65	1667.05
511.85	1605.61
512.06	1703.91
512.26	1673.19
512.47	1732.58
512.67	1732.58
512.88	1742.82
513.08	1703.91
513.29	1744.87
513.49	1710.05
513.69	1732.58
513.90	1601.51
514.10	1746.92
514.31	1679.33
514.51	1642.47
514.72	1714.15
514.92	1677.29
515.13	1679.33
515.33	1669.09
515.53	1654.76
515.74	1728.49
515.94	1658.85
516.15	1789.92
516.35	1595.37
516.56	1617.90
516.76	1705.96
516.96	1667.05
517.17	1714.15
517.37	1675.24
517.58	1630.18
517.78	1650.66
517.99	1744.87
518.19	1814.50
518.39	1769.44
518.60	1765.35
518.80	1648.61
519.01	1773.54
519.21	1658.85
519.41	1665.00
519.62	1691.62
519.82	1732.58
520.03	1634.28
520.23	1671.14
520.43	1568.74
520.64	1783.78
520.84	1830.88
521.05	1667.05
521.25	1730.53
521.45	1712.10
521.66	1708.01
521.86	1705.96
522.07	1669.09
522.27	1683.43
522.47	1677.29
522.68	1748.97
522.88	1701.86
523.08	1744.87
523.29	1587.18
523.49	1617.90
523.70	1705.96
523.90	1703.91
524.10	1699.81
524.31	1660.90
524.51	1499.11
524.71	1818.60
524.92	1775.59
525.12	1644.52
525.33	1712.10
525.53	1646.57
525.73	1716.20
525.94	1724.39
526.14	1703.91
526.34	1667.05
526.55	1685.48
526.75	1636.33
526.95	1798.12
527.16	1656.81
527.36	1720.29
527.56	1734.63
527.77	1626.09
527.97	1751.01
528.17	1640.42
528.38	1697.77
528.58	1660.90
528.78	1679.33
528.99	1710.05
529.19	1697.77
529.39	1660.90
529.60	1630.18
529.80	1619.94
530.00	1611.75
530.21	1673.19
530.41	1642.47
530.61	1742.82
530.82	1714.15
531.02	1693.67
531.22	1689.57
531.43	1669.09
531.63	1742.82
531.83	1675.24
532.04	1722.34
532.24	1665.00
532.44	1675.24
532.64	1712.10
532.85	1554.41
533.05	1710.05
533.25	1583.08
533.46	1691.62
533.66	1708.01
533.86	1650.66
534.07	1736.68
534.27	1718.25
534.47	1748.97
534.67	1685.48
534.88	1636.33
535.08	1757.16
535.28	1724.39
535.49	1634.28
535.69	1708.01
535.89	1732.58
536.09	1736.68
536.30	1728.49
536.50	1681.38
536.70	1742.82
536.91	1693.67
537.11	1761.25
537.31	1736.68
537.51	1679.33
537.72	1746.92
537.92	1640.42
538.12	1734.63
538.32	1753.06
538.53	1638.38
538.73	1687.53
538.93	1777.64
539.13	1800.16
539.34	1736.68
539.54	1652.71
539.74	1722.34
539.94	1794.02
540.15	1730.53
540.35	1724.39
540.55	1591.27
540.75	1607.66
540.96	1714.15
541.16	1751.01
541.36	1716.20
541.56	1716.20
541.77	1773.54
541.97	1673.19
542.17	1636.33
542.37	1767.40
542.58	1773.54
542.78	1765.35
542.98	1730.53
543.18	1730.53
543.38	1806.31
543.59	1638.38
543.79	1669.09
543.99	1607.66
544.19	1617.90
544.40	1701.86
544.60	1736.68
544.80	1716.20
545.00	1585.13
545.20	1777.64
545.41	1626.09
545.61	1601.51
545.81	1648.61
546.01	1724.39
546.21	1640.42
546.42	1703.91
546.62	1726.44
546.82	1642.47
547.02	1624.04
547.22	1609.70
547.43	1714.15
547.63	1693.67
547.83	1685.48
548.03	1656.81
548.23	1683.43
548.44	1726.44
548.64	1621.99
548.84	1644.52
549.04	1665.00
549.24	1763.30
549.45	1806.31
549.65	1691.62
549.85	1699.81
550.05	1705.96
550.25	1533.93
550.45	1726.44
550.66	1806.31
550.86	1656.81
551.06	1671.14
551.26	1646.57
551.46	1673.19
551.66	1720.29
551.87	1708.01
552.07	1751.01
552.27	1632.23
552.47	1720.29
552.67	1689.57
552.87	1699.81
553.07	1632.23
553.28	1740.77
553.48	1605.61
553.68	1689.57
553.88	1714.15
554.08	1681.38
554.28	1669.09
554.48	1624.04
554.69	1748.97
554.89	1665.00
555.09	1654.76
555.29	1611.75
555.49	1648.61
555.69	1646.57
555.89	1703.91
556.10	1671.14
556.30	1630.18
556.50	1759.21
556.70	1667.05
556.90	1642.47
557.10	1720.29
557.30	1679.33
557.50	1585.13
557.70	1642.47
557.91	1675.24
558.11	1673.19
558.31	1781.73
558.51	1634.28
558.71	1712.10
558.91	1808.36
559.11	1695.72
559.31	1699.81
559.51	1630.18
559.72	1736.68
559.92	1630.18
560.12	1617.90
560.32	1785.83
560.52	1773.54
560.72	1671.14
560.92	1722.34
561.12	1769.44
561.32	1662.95
561.52	1683.43
561.72	1865.70
561.93	1843.17
562.13	1738.73
562.33	1732.58
562.53	1640.42
562.73	1667.05
562.93	1683.43
563.13	1765.35
563.33	1757.16
563.53	1755.11
563.73	1732.58
563.93	1753.06
564.13	1744.87
564.33	1710.05
564.53	1652.71
564.74	1652.71
564.94	1628.14
565.14	1734.63
565.34	1732.58
565.54	1708.01
565.74	1632.23
565.94	1687.53
566.14	1724.39
566.34	1650.66
566.54	1755.11
566.74	1679.33
566.94	1685.48
567.14	1697.77
567.34	1744.87
567.54	1716.20
567.74	1726.44
567.94	1646.57
568.14	1675.24
568.34	1748.97
568.54	1691.62
568.74	1736.68
568.94	1701.86
569.14	1812.45
569.34	1683.43
569.54	1619.94
569.75	1667.05
569.95	1759.21
570.15	1767.40
570.35	1691.62
570.55	1740.77
570.75	1722.34
570.95	1689.57
571.15	1703.91
571.35	1652.71
571.55	1650.66
571.75	1638.38
571.95	1683.43
572.15	1660.90
572.35	1728.49
572.55	1687.53
572.75	1624.04
572.95	1654.76
573.15	1697.77
573.35	1775.59
573.55	1753.06
573.75	1634.28
573.95	1757.16
574.15	1710.05
574.35	1673.19
574.55	1642.47
574.75	1693.67
574.95	1728.49
575.15	1736.68
575.34	1697.77
575.54	1693.67
575.74	1742.82
575.94	1724.39
576.14	1617.90
576.34	1726.44
576.54	1654.76
576.74	1751.01
576.94	1665.00
577.14	1712.10
577.34	1732.58
577.54	1673.19
577.74	1589.22
577.94	1720.29
578.14	1619.94
578.34	1617.90
578.54	1574.89
578.74	1691.62
578.94	1681.38
579.14	1804.26
579.34	1626.09
579.54	1748.97
579.74	1771.49
579.94	1689.57
580.13	1736.68
580.33	1656.81
580.53	1640.42
580.73	1648.61
580.93	1798.12
581.13	1660.90
581.33	1701.86
581.53	1701.86
581.73	1675.24
581.93	1572.84
582.13	1734.63
582.33	1730.53
582.53	1679.33
582.73	1724.39
582.92	1646.57
583.12	1714.15
583.32	1591.27
583.52	1716.20
583.72	1753.06
583.92	1738.73
584.12	1716.20
584.32	1736.68
584.52	1613.80
584.72	1642.47
584.92	1718.25
585.11	1751.01
585.31	1763.30
585.51	1611.75
585.71	1705.96
585.91	1724.39
586.11	1677.29
586.31	1744.87
586.51	1617.90
586.71	1689.57
586.91	1648.61
587.10	1705.96
587.30	1658.85
587.50	1685.48
587.70	1667.05
587.90	1699.81
588.10	1671.14
588.30	1736.68
588.50	1714.15
588.69	1634.28
588.89	1740.77
589.09	1751.01
589.29	1628.14
589.49	1597.42
589.69	1615.85
589.89	1712.10
590.08	1673.19
590.28	1705.96
590.48	1753.06
590.68	1697.77
590.88	1679.33
591.08	1769.44
591.28	1652.71
591.47	1738.73
591.67	1597.42
591.87	1662.95
592.07	1834.98
592.27	1591.27
592.47	1568.74
592.67	1701.86
592.86	1650.66
593.06	1667.05
593.26	1779.68
593.46	1736.68
593.66	1673.19
593.86	1746.92
594.05	1705.96
594.25	1665.00
594.45	1566.70
594.65	1761.25
594.85	1791.97
595.05	1660.90
595.24	1671.14
595.44	1689.57
595.64	1667.05
595.84	1789.92
596.04	1726.44
596.23	1701.86
596.43	1658.85
596.63	1697.77
596.83	1710.05
597.03	1818.60
597.22	1722.34
597.42	1753.06
597.62	1716.20
597.82	1726.44
598.02	1714.15
598.21	1669.09
598.41	1650.66
598.61	1671.14
598.81	1681.38
599.01	1693.67
599.20	1677.29
599.40	1667.05
599.60	1722.34
599.80	1671.14
600.00	1808.36
600.19	1697.77
600.39	1615.85
600.59	1669.09
600.79	1802.21
600.98	1730.53
601.18	1775.59
601.38	1683.43
601.58	1675.24
601.78	1757.16
601.97	1839.08
602.17	1753.06
602.37	1652.71
602.57	1722.34
602.76	1724.39
602.96	1683.43
603.16	1654.76
603.36	1771.49
603.55	1724.39
603.75	1617.90
603.95	1671.14
604.15	1705.96
604.34	1591.27
604.54	1712.10
604.74	1783.78
604.94	1728.49
605.13	1646.57
605.33	1683.43
605.53	1617.90
605.73	1759.21
605.92	1617.90
606.12	1804.26
606.32	1603.56
606.52	1712.10
606.71	1712.10
606.91	1763.30
607.11	1734.63
607.30	1714.15
607.50	1685.48
607.70	1742.82
607.90	1660.90
608.09	1615.85
608.29	1744.87
608.49	1777.64
608.68	1660.90
608.88	1624.04
609.08	1654.76
609.28	1724.39
609.47	1607.66
609.67	1746.92
609.87	1701.86
610.06	1724.39
610.26	1710.05
610.46	1855.46
610.66	1558.50
610.85	1609.70
611.05	1777.64
611.25	1646.57
611.44	1708.01
611.64	1699.81
611.84	1667.05
612.03	1728.49
612.23	1695.72
612.43	1742.82
612.62	1695.72
612.82	1775.59
613.02	1740.77
613.21	1720.29
613.41	1757.16
613.61	1654.76
613.80	1628.14
614.00	1660.90
614.20	1808.36
614.39	1736.68
614.59	1781.73
614.79	1673.19
614.98	1681.38
615.18	1732.58
615.38	1699.81
615.57	1681.38
615.77	1820.64
615.97	1583.08
616.16	1665.00
616.36	1708.01
616.56	1681.38
616.75	1734.63
616.95	1677.29
617.15	1744.87
617.34	1605.61
617.54	1857.51
617.74	1787.88
617.93	1808.36
618.13	1697.77
618.32	1722.34
618.52	1789.92
618.72	1665.00
618.91	1785.83
619.11	1740.77
619.31	1662.95
619.50	1648.61
619.70	1685.48
619.90	1667.05
620.09	1746.92
620.29	1621.99
620.48	1804.26
620.68	1734.63
620.88	1746.92
621.07	1708.01
621.27	1628.14
621.46	1761.25
621.66	1757.16
621.86	1673.19
622.05	1650.66
622.25	1802.21
622.44	1621.99
622.64	1689.57
622.84	1691.62
623.03	1617.90
623.23	1763.30
623.42	1671.14
623.62	1738.73
623.82	1773.54
624.01	1699.81
624.21	1753.06
624.40	1763.30
624.60	1591.27
624.80	1703.91
624.99	1734.63
625.19	1708.01
625.38	1634.28
625.58	1660.90
625.77	1724.39
625.97	1726.44
626.17	1611.75
626.36	1673.19
626.56	1757.16
626.75	1605.61
626.95	1671.14
627.14	1730.53
627.34	1662.95
627.54	1761.25
627.73	1765.35
627.93	1798.12
628.12	1783.78
628.32	1730.53
628.51	1642.47
628.71	1730.53
628.90	1718.25
629.10	1665.00
629.30	1634.28
629.49	1812.45
629.69	1652.71
629.88	1650.66
630.08	1855.46
630.27	1798.12
630.47	1712.10
630.66	1611.75
630.86	1718.25
631.05	1654.76
631.25	1708.01
631.44	1708.01
631.64	1589.22
631.84	1652.71
632.03	1716.20
632.23	1728.49
632.42	1660.90
632.62	1685.48
632.81	1650.66
633.01	1732.58
633.20	1877.99
633.40	1802.21
633.59	1769.44
633.79	1699.81
633.98	1708.01
634.18	1761.25
634.37	1787.88
634.57	1658.85
634.76	1640.42
634.96	1722.34
635.15	1886.18
635.35	1703.91
635.54	1667.05
635.74	1746.92
635.93	1628.14
636.13	1665.00
636.32	1773.54
636.52	1763.30
636.71	1671.14
636.91	1593.32
637.10	1779.68
637.30	1632.23
637.49	1697.77
637.69	1751.01
637.88	1744.87
638.08	1689.57
638.27	1630.18
638.46	1777.64
638.66	1585.13
638.85	1685.48
639.05	1671.14
639.24	1712.10
639.44	1677.29
639.63	1783.78
639.83	1757.16
640.02	1748.97
640.22	1703.91
640.41	1630.18
640.61	1751.01
640.80	1671.14
640.99	1650.66
641.19	1826.79
641.38	1824.74
641.58	1714.15
641.77	1701.86
641.97	1687.53
642.16	1693.67
642.36	1722.34
642.55	1742.82
642.74	1775.59
642.94	1738.73
643.13	1607.66
643.33	1724.39
643.52	1591.27
643.72	1755.11
643.91	1673.19
644.10	1814.50
644.30	1662.95
644.49	1757.16
644.69	1669.09
644.88	1695.72
645.08	1740.77
645.27	1738.73
645.46	1695.72
645.66	1724.39
645.85	1697.77
646.05	1710.05
646.24	1705.96
646.43	1662.95
646.63	1753.06
646.82	1671.14
647.02	1746.92
647.21	1755.11
647.40	1748.97
647.60	1671.14
647.79	1787.88
647.99	1708.01
648.18	1710.05
648.37	1759.21
648.57	1716.20
648.76	1626.09
648.96	1679.33
649.15	1669.09
649.34	1802.21
649.54	1662.95
649.73	1636.33
649.92	1691.62
650.12	1726.44
650.31	1703.91
650.51	1966.05
650.70	1708.01
650.89	1691.62
651.09	1779.68
651.28	1761.25
651.47	1599.46
651.67	1771.49
651.86	1771.49
652.06	1585.13
652.25	1691.62
652.44	1548.26
652.64	1710.05
652.83	1789.92
653.02	1681.38
653.22	1712.10
653.41	1624.04
653.60	1681.38
653.80	1591.27
653.99	1734.63
654.18	1673.19
654.38	1628.14
654.57	1726.44
654.76	1662.95
654.96	1720.29
655.15	1642.47
655.34	1689.57
655.54	1605.61
655.73	1703.91
655.92	1716.20
656.12	1665.00
656.31	1841.12
656.50	1873.89
656.70	1675.24
656.89	1681.38
657.08	1570.79
657.28	1679.33
657.47	1673.19
657.66	1646.57
657.86	1716.20
658.05	1757.16
658.24	1646.57
658.43	1759.21
658.63	1673.19
658.82	1716.20
659.01	1763.30
659.21	1777.64
659.40	1634.28
659.59	1736.68
659.79	1722.34
659.98	1814.50
660.17	1742.82
660.36	1693.67
660.56	1734.63
660.75	1714.15
660.94	1687.53
661.14	1691.62
661.33	1669.09
661.52	1660.90
661.71	1769.44
661.91	1714.15
662.10	1671.14
662.29	1560.55
662.49	1689.57
662.68	1673.19
662.87	1617.90
663.06	1796.07
663.26	1693.67
663.45	1847.27
663.64	1712.10
663.83	1644.52
664.03	1818.60
664.22	1683.43
664.41	1812.45
664.60	1783.78
664.80	1619.94
664.99	1695.72
665.18	1781.73
665.37	1685.48
665.57	1771.49
665.76	1675.24
665.95	1628.14
666.14	1687.53
666.34	1626.09
666.53	1654.76
666.72	1634.28
666.91	1712.10
667.11	1746.92
667.30	1818.60
667.49	1691.62
667.68	1863.65
667.87	1736.68
668.07	1783.78
668.26	1593.32
668.45	1630.18
668.64	1621.99
668.84	1755.11
669.03	1705.96
669.22	1802.21
669.41	1806.31
669.60	1621.99
669.80	1701.86
669.99	1693.67
670.18	1656.81
670.37	1740.77
670.57	1757.16
670.76	1660.90
670.95	1736.68
671.14	1708.01
671.33	1679.33
671.53	1769.44
671.72	1761.25
671.91	1794.02
672.10	1675.24
672.29	1636.33
672.48	1665.00
672.68	1667.05
672.87	1654.76
673.06	1673.19
673.25	1705.96
673.44	1708.01
673.64	1638.38
673.83	1611.75
674.02	1568.74
674.21	1732.58
674.40	1726.44
674.59	1691.62
674.79	1640.42
674.98	1775.59
675.17	1791.97
675.36	1611.75
675.55	1632.23
675.74	1748.97
675.94	1757.16
676.13	1740.77
676.32	1662.95
676.51	1675.24
676.70	1576.94
676.89	1740.77
677.08	1699.81
677.28	1859.56
677.47	1716.20
677.66	1691.62
677.85	1613.80
678.04	1712.10
678.23	1738.73
678.42	1613.80
678.62	1738.73
678.81	1630.18
679.00	1675.24
679.19	1855.46
679.38	1783.78
679.57	1648.61
679.76	1669.09
679.96	1675.24
680.15	1714.15
680.34	1667.05
680.53	1705.96
680.72	1794.02
680.91	1671.14
681.10	1751.01
681.29	1724.39
681.48	1798.12
681.68	1710.05
681.87	1775.59
682.06	1781.73
682.25	1757.16
682.44	1609.70
682.63	1859.56
682.82	1546.22
683.01	1701.86
683.20	1718.25
683.39	1804.26
683.59	1601.51
683.78	1693.67
683.97	1656.81
684.16	1611.75
684.35	1632.23
684.54	1732.58
684.73	1697.77
684.92	1595.37
685.11	1798.12
685.30	1744.87
685.49	1667.05
685.69	1802.21
685.88	1687.53
686.07	1650.66
686.26	1626.09
686.45	1736.68
686.64	1781.73
686.83	1740.77
687.02	1755.11
687.21	1757.16
687.40	1630.18
687.59	1882.08
687.78	1720.29
687.97	1757.16
688.16	1665.00
688.35	1736.68
688.54	1650.66
688.74	1538.02
688.93	1654.76
689.12	1748.97
689.31	1812.45
689.50	1757.16
689.69	1652.71
689.88	1755.11
690.07	1705.96
690.26	1703.91
690.45	1697.77
690.64	1673.19
690.83	1597.42
691.02	1654.76
691.21	1748.97
691.40	1683.43
691.59	1671.14
691.78	1726.44
691.97	1765.35
692.16	1646.57
692.35	1783.78
692.54	1902.56
692.73	1740.77
692.92	1781.73
693.11	1626.09
693.30	1796.07
693.49	1703.91
693.68	1767.40
693.87	1748.97
694.06	1724.39
694.25	1679.33
694.44	1720.29
694.63	1671.14
694.82	1638.38
695.01	1685.48
695.20	1714.15
695.39	1701.86
695.58	1673.19
695.77	1617.90
695.96	1691.62
696.15	1634.28
696.34	1671.14
696.53	1607.66
696.72	1695.72
696.91	1642.47
697.10	1789.92
697.29	1591.27
697.48	1779.68
697.67	1777.64
697.86	1658.85
698.05	1710.05
698.24	1738.73
698.43	1716.20
698.62	1718.25
698.81	1765.35
699.00	1708.01
699.19	1697.77
699.38	1703.91
699.57	1667.05
699.76	1712.10
699.95	1685.48
700.14	1675.24
700.32	1701.86
700.51	1630.18
700.70	1646.57
700.89	1675.24
701.08	1785.83
701.27	1626.09
701.46	1820.64
701.65	1621.99
701.84	1708.01
702.03	1570.79
702.22	1781.73
702.41	1722.34
702.60	1722.34
702.79	1722.34
702.98	1634.28
703.17	1732.58
703.35	1656.81
703.54	1732.58
703.73	1722.34
703.92	1697.77
704.11	1671.14
704.30	1734.63
704.49	1773.54
704.68	1640.42
704.87	1648.61
705.06	1775.59
705.25	1646.57
705.43	1621.99
705.62	1679.33
705.81	1834.98
706.00	1652.71
706.19	1744.87
706.38	1667.05
706.57	1748.97
706.76	1617.90
706.95	1691.62
707.14	1724.39
707.32	1673.19
707.51	1615.85
707.70	1681.38
707.89	1691.62
708.08	1652.71
708.27	1648.61
708.46	1691.62
708.65	1665.00
708.84	1712.10
709.02	1697.77
709.21	1695.72
709.40	1753.06
709.59	1736.68
709.78	1705.96
709.97	1646.57
710.16	1677.29
710.34	1705.96
710.53	1730.53
710.72	1652.71
710.91	1742.82
711.10	1607.66
711.29	1595.37
711.48	1632.23
711.66	1728.49
711.85	1624.04
712.04	1667.05
712.23	1708.01
712.42	1701.86
712.61	1736.68
712.80	1703.91
712.98	1691.62
713.17	1634.28
713.36	1609.70
713.55	1789.92
713.74	1722.34
713.93	1730.53
714.11	1609.70
714.30	1535.98
714.49	1695.72
714.68	1691.62
714.87	1564.65
715.06	1806.31
715.24	1656.81
715.43	1675.24
715.62	1695.72
715.81	1630.18
716.00	1683.43
716.18	1708.01
716.37	1689.57
716.56	1710.05
716.75	1736.68
716.94	1667.05
717.12	1720.29
717.31	1652.71
717.50	1611.75
717.69	1691.62
717.88	1697.77
718.06	1660.90
718.25	1679.33
718.44	1675.24
718.63	1773.54
718.82	1675.24
719.00	1644.52
719.19	1830.88
719.38	1732.58
719.57	1691.62
719.76	1630.18
719.94	1691.62
720.13	1765.35
720.32	1777.64
720.51	1681.38
720.69	1697.77
720.88	1763.30
721.07	1673.19
721.26	1710.05
721.44	1648.61
721.63	1675.24
721.82	1693.67
722.01	1753.06
722.20	1662.95
722.38	1728.49
722.57	1576.94
722.76	1617.90
722.95	1597.42
723.13	1724.39
723.32	1695.72
723.51	1746.92
723.70	1703.91
723.88	1724.39
724.07	1697.77
724.26	1734.63
724.44	1667.05
724.63	1716.20
724.82	1691.62
725.01	1753.06
725.19	1628.14
725.38	1673.19
725.57	1652.71
725.76	1720.29
725.94	1632.23
726.13	1662.95
726.32	1665.00
726.51	1650.66
726.69	1621.99
726.88	1751.01
727.07	1681.38
727.25	1636.33
727.44	1683.43
727.63	1697.77
727.82	1632.23
728.00	1638.38
728.19	1736.68
728.38	1603.56
728.56	1675.24
728.75	1751.01
728.94	1621.99
729.12	1628.14
729.31	1652.71
729.50	1613.80
729.69	1724.39
729.87	1667.05
730.06	1611.75
730.25	1675.24
730.43	1718.25
730.62	1624.04
730.81	1642.47
730.99	1660.90
731.18	1591.27
731.37	1621.99
731.55	1708.01
731.74	1685.48
731.93	1722.34
732.11	1634.28
732.30	1660.90
732.49	1787.88
732.67	1642.47
732.86	1601.51
733.05	1593.32
733.23	1679.33
733.42	1681.38
733.61	1654.76
733.79	1761.25
733.98	1769.44
734.17	1656.81
734.35	1748.97
734.54	1667.05
734.73	1738.73
734.91	1662.95
735.10	1701.86
735.29	1701.86
735.47	1675.24
735.66	1601.51
735.84	1726.44
736.03	1611.75
736.22	1740.77
736.40	1728.49
736.59	1560.55
736.78	1650.66
736.96	1644.52
737.15	1738.73
737.33	1673.19
737.52	1695.72
737.71	1748.97
737.89	1705.96
738.08	1744.87
738.27	1734.63
738.45	1744.87
738.64	1689.57
738.82	1669.09
739.01	1656.81
739.20	1654.76
739.38	1730.53
739.57	1687.53
739.75	1685.48
739.94	1734.63
740.13	1581.03
740.31	1755.11
740.50	1724.39
740.68	1691.62
740.87	1624.04
741.06	1718.25
741.24	1746.92
741.43	1679.33
741.61	1648.61
741.80	1593.32
741.99	1671.14
742.17	1720.29
742.36	1572.84
742.54	1660.90
742.73	1802.21
742.91	1732.58
743.10	1654.76
743.29	1738.73
743.47	1718.25
743.66	1519.59
743.84	1650.66
744.03	1724.39
744.21	1671.14
744.40	1660.90
744.59	1634.28
744.77	1708.01
744.96	1775.59
745.14	1667.05
745.33	1650.66
745.51	1740.77
745.70	1693.67
745.88	1771.49
746.07	1669.09
746.26	1650.66
746.44	1611.75
746.63	1544.17
746.81	1697.77
747.00	1744.87
747.18	1687.53
747.37	1648.61
747.55	1685.48
747.74	1984.48
747.92	1644.52
748.11	1638.38
748.29	1621.99
748.48	1673.19
748.66	1697.77
748.85	1675.24
749.03	1757.16
749.22	1562.60
749.41	1703.91
749.59	1667.05
749.78	1665.00
749.96	1570.79
750.15	1654.76
750.33	1708.01
750.52	1646.57
750.70	1685.48
750.89	1728.49
751.07	1605.61
751.26	1679.33
751.44	1662.95
751.63	1716.20
751.81	1665.00
752.00	1679.33
752.18	1689.57
752.37	1722.34
752.55	1617.90
752.74	1589.22
752.92	1728.49
753.10	1632.23
753.29	1687.53
753.47	1689.57
753.66	1626.09
753.84	1644.52
754.03	1585.13
754.21	1662.95
754.40	1730.53
754.58	1705.96
754.77	1791.97
754.95	1742.82
755.14	1638.38
755.32	1636.33
755.51	1591.27
755.69	1683.43
755.88	1617.90
756.06	1751.01
756.24	1621.99
756.43	1695.72
756.61	1736.68
756.80	1634.28
756.98	1710.05
757.17	1644.52
757.35	1703.91
757.54	1724.39
757.72	1648.61
757.90	1601.51
758.09	1683.43
758.27	1605.61
758.46	1722.34
758.64	1689.57
758.83	1683.43
759.01	1708.01
759.19	1763.30
759.38	1708.01
759.56	1650.66
759.75	1587.18
759.93	1691.62
760.12	1630.18
760.30	1660.90
760.48	1716.20
760.67	1708.01
760.85	1613.80
761.04	1656.81
761.22	1705.96
761.40	1685.48
761.59	1660.90
761.77	1722.34
761.96	1644.52
762.14	1603.56
762.32	1753.06
762.51	1642.47
762.69	1662.95
762.88	1701.86
763.06	1617.90
763.24	1630.18
763.43	1675.24
763.61	1669.09
763.80	1740.77
763.98	1761.25
764.16	1654.76
764.35	1648.61
764.53	1632.23
764.72	1662.95
764.90	1671.14
765.08	1714.15
765.27	1748.97
765.45	1654.76
765.63	1617.90
765.82	1687.53
766.00	1636.33
766.18	1691.62
766.37	1730.53
766.55	1632.23
766.74	1720.29
766.92	1652.71
767.10	1677.29
767.29	1703.91
767.47	1578.98
767.65	1677.29
767.84	1685.48
768.02	1810.40
768.20	1720.29
768.39	1681.38
768.57	1699.81
768.75	1628.14
768.94	1789.92
769.12	1646.57
769.30	1658.85
769.49	1699.81
769.67	1593.32
769.85	1806.31
770.04	1603.56
770.22	1634.28
770.40	1728.49
770.59	1662.95
770.77	1724.39
770.95	1671.14
771.14	1720.29
771.32	1656.81
771.50	1605.61
771.69	1630.18
771.87	1693.67
772.05	1617.90
772.24	1568.74
772.42	1753.06
772.60	1667.05
772.78	1742.82
772.97	1613.80
773.15	1611.75
773.33	1642.47
773.52	1654.76
773.70	1644.52
773.88	1650.66
774.07	1581.03
774.25	1685.48
774.43	1712.10
774.61	1687.53
774.80	1619.94
774.98	1683.43
775.16	1642.47
775.34	1667.05
775.53	1734.63
775.71	1722.34
775.89	1712.10
776.08	1652.71
776.26	1634.28
776.44	1693.67
776.62	1556.46
776.81	1621.99
776.99	1691.62
777.17	1697.77
777.35	1722.34
777.54	1646.57
777.72	1667.05
777.90	1691.62
778.08	1615.85
778.27	1597.42
778.45	1628.14
778.63	1599.46
778.81	1658.85
779.00	1691.62
779.18	1660.90
779.36	1730.53
779.54	1751.01
779.73	1675.24
779.91	1626.09
780.09	1581.03
780.27	1578.98
780.46	1646.57
780.64	1607.66
780.82	1648.61
781.00	1634.28
781.19	1652.71
781.37	1675.24
781.55	1673.19
781.73	1720.29
781.91	1662.95
782.10	1744.87
782.28	1755.11
782.46	1642.47
782.64	1757.16
782.82	1738.73
783.01	1746.92
783.19	1736.68
783.37	1699.81
783.55	1681.38
783.74	1679.33
783.92	1609.70
784.10	1626.09
784.28	1662.95
784.46	1615.85
784.64	1650.66
784.83	1738.73
785.01	1716.20
785.19	1730.53
785.37	1740.77
785.55	1634.28
785.74	1654.76
785.92	1691.62
786.10	1669.09
786.28	1767.40
786.46	1757.16
786.64	1617.90
786.83	1630.18
787.01	1630.18
787.19	1757.16
787.37	1757.16
787.55	1708.01
787.74	1667.05
787.92	1656.81
788.10	1744.87
788.28	1640.42
788.46	1642.47
788.64	1742.82
788.82	1734.63
789.01	1650.66
789.19	1691.62
789.37	1701.86
789.55	1665.00
789.73	1617.90
789.91	1656.81
790.09	1726.44
790.28	1562.60
790.46	1638.38
790.64	1665.00
790.82	1630.18
791.00	1630.18
791.18	1769.44
791.36	1714.15
791.55	1685.48
791.73	1630.18
791.91	1527.78
792.09	1650.66
792.27	1589.22
792.45	1695.72
792.63	1748.97
792.81	1615.85
793.00	1681.38
793.18	1658.85
793.36	1718.25
793.54	1665.00
793.72	1699.81
793.90	1667.05
794.08	1613.80
794.26	1642.47
794.44	1654.76
794.62	1576.94
794.81	1589.22
794.99	1624.04
795.17	1744.87
795.35	1656.81
795.53	1722.34
795.71	1665.00
795.89	1607.66
796.07	1650.66
796.25	1628.14
796.43	1683.43
796.61	1748.97
796.80	1660.90
796.98	1648.61
797.16	1701.86
797.34	1714.15
797.52	1626.09
797.70	1738.73
797.88	1697.77
798.06	1611.75
798.24	1787.88
798.42	1558.50
798.60	1732.58
798.78	1658.85
798.96	1646.57
799.14	1650.66
799.32	1701.86
799.51	1570.79
799.69	1773.54
799.87	1755.11
800.05	1634.28
800.23	1611.75
800.41	1574.89
800.59	1677.29
800.77	1626.09
800.95	1581.03
801.13	1648.61
801.31	1632.23
801.49	1718.25
801.67	1621.99
801.85	1652.71
802.03	1693.67
802.21	1687.53
802.39	1613.80
802.57	1654.76
802.75	1744.87
802.93	1728.49
803.11	1587.18
803.29	1718.25
803.47	1728.49
803.65	1599.46
803.83	1560.55
804.01	1703.91
804.19	1607.66
804.37	1718.25
804.55	1617.90
804.73	1697.77
804.91	1654.76
805.09	1685.48
805.27	1728.49
805.45	1634.28
805.63	1597.42
805.81	1642.47
805.99	1740.77
806.17	1632.23
806.35	1578.98
806.53	1648.61
806.71	1681.38
806.89	1720.29
807.07	1722.34
807.25	1761.25
807.43	1662.95
807.61	1796.07
807.79	1716.20
807.97	1701.86
808.15	1662.95
808.33	1621.99
808.51	1732.58
808.69	1613.80
808.87	1585.13
809.05	1568.74
809.23	1621.99
809.41	1644.52
809.59	1701.86
809.77	1814.50
809.95	1679.33
810.13	1724.39
810.31	1660.90
810.49	1654.76
810.67	1703.91
810.84	1705.96
811.02	1716.20
811.20	1540.07
811.38	1728.49
811.56	1617.90
811.74	1669.09
811.92	1628.14
812.10	1675.24
812.28	1740.77
812.46	1740.77
812.64	1681.38
812.82	1654.76
813.00	1601.51
813.18	1648.61
813.36	1724.39
813.53	1695.72
813.71	1703.91
813.89	1665.00
814.07	1583.08
814.25	1654.76
814.43	1628.14
814.61	1650.66
814.79	1677.29
814.97	1605.61
815.15	1665.00
815.33	1560.55
815.50	1681.38
815.68	1705.96
815.86	1652.71
816.04	1726.44
816.22	1619.94
816.40	1667.05
816.58	1630.18
816.76	1656.81
816.94	1673.19
817.11	1617.90
817.29	1665.00
817.47	1722.34
817.65	1667.05
817.83	1646.57
818.01	1705.96
818.19	1538.02
818.37	1679.33
818.54	1785.83
818.72	1689.57
818.90	1654.76
819.08	1677.29
819.26	1716.20
819.44	1802.21
819.62	1671.14
819.80	1617.90
819.97	1757.16
820.15	1673.19
820.33	1619.94
820.51	1640.42
820.69	1665.00
820.87	1736.68
821.05	1662.95
821.22	1634.28
821.40	1658.85
821.58	1667.05
821.76	1581.03
821.94	1652.71
822.12	1691.62
822.29	1609.70
822.47	1617.90
822.65	1656.81
822.83	1593.32
823.01	1720.29
823.19	1597.42
823.36	1642.47
823.54	1609.70
823.72	1662.95
823.90	1693.67
824.08	1681.38
824.25	1708.01
824.43	1675.24
824.61	1609.70
824.79	1728.49
824.97	1613.80
825.15	1640.42
825.32	1673.19
825.50	1667.05
825.68	1628.14
825.86	1640.42
826.04	1640.42
826.21	1673.19
826.39	1619.94
826.57	1578.98
826.75	1724.39
826.93	1712.10
827.10	1644.52
827.28	1570.79
827.46	1720.29
827.64	1714.15
827.81	1638.38
827.99	1611.75
828.17	1691.62
828.35	1687.53
828.53	1677.29
828.70	1654.76
828.88	1648.61
829.06	1621.99
829.24	1613.80
829.41	1695.72
829.59	1703.91
829.77	1687.53
829.95	1624.04
830.12	1611.75
830.30	1710.05
830.48	1716.20
830.66	1587.18
830.84	1667.05
831.01	1714.15
831.19	1597.42
831.37	1736.68
831.55	1632.23
831.72	1681.38
831.90	1673.19
832.08	1597.42
832.25	1710.05
832.43	1697.77
832.61	1777.64
832.79	1603.56
832.96	1675.24
833.14	1775.59
833.32	1712.10
833.50	1619.94
833.67	1615.85
833.85	1585.13
834.03	1632.23
834.20	1658.85
834.38	1730.53
834.56	1671.14
834.74	1660.90
834.91	1671.14
835.09	1738.73
835.27	1599.46
835.44	1712.10
835.62	1693.67
835.80	1642.47
835.98	1667.05
836.15	1640.42
836.33	1630.18
836.51	1564.65
836.68	1634.28
836.86	1624.04
837.04	1701.86
837.21	1689.57
837.39	1689.57
837.57	1794.02
837.75	1669.09
837.92	1634.28
838.10	1583.08
838.28	1615.85
838.45	1615.85
838.63	1583.08
838.81	1771.49
838.98	1730.53
839.16	1648.61
839.34	1593.32
839.51	1660.90
839.69	1617.90
839.87	1687.53
840.04	1740.77
840.22	1918.95
840.40	1689.57
840.57	1617.90
840.75	1675.24
840.93	1669.09
841.10	1640.42
841.28	1685.48
841.46	1699.81
841.63	1697.77
841.81	1556.46
841.98	1548.26
842.16	1718.25
842.34	1652.71
842.51	1523.69
842.69	1728.49
842.87	1685.48
843.04	1626.09
843.22	1626.09
843.40	1632.23
843.57	1640.42
843.75	1621.99
843.92	1675.24
844.10	1712.10
844.28	1611.75
844.45	1687.53
844.63	1658.85
844.81	1689.57
844.98	1732.58
845.16	1738.73
845.33	1728.49
845.51	1648.61
845.69	1744.87
845.86	1730.53
846.04	1517.54
846.21	1611.75
846.39	1560.55
846.57	1611.75
846.74	1581.03
846.92	1714.15
847.09	1630.18
847.27	1658.85
847.45	1660.90
847.62	1665.00
847.80	1710.05
847.97	1644.52
848.15	1607.66
848.32	1714.15
848.50	1691.62
848.68	1566.70
848.85	1652.71
849.03	1527.78
849.20	1568.74
849.38	1611.75
849.56	1605.61
849.73	1595.37
849.91	1658.85
850.08	1683.43
850.26	1544.17
850.43	1693.67
850.61	1759.21
850.78	1490.92
850.96	1611.75
851.14	1566.70
851.31	1761.25
851.49	1613.80
851.66	1630.18
851.84	1603.56
852.01	1630.18
852.19	1558.50
852.36	1703.91
852.54	1656.81
852.71	1589.22
852.89	1619.94
853.07	1560.55
853.24	1638.38
853.42	1607.66
853.59	1611.75
853.77	1593.32
853.94	1658.85
854.12	1654.76
854.29	1632.23
854.47	1566.70
854.64	1740.77
854.82	1667.05
854.99	1708.01
855.17	1621.99
855.34	1531.88
855.52	1628.14
855.69	1705.96
855.87	1603.56
856.04	1699.81
856.22	1765.35
856.39	1626.09
856.57	1605.61
856.74	1681.38
856.92	1728.49
857.09	1677.29
857.27	1591.27
857.44	1699.81
857.62	1730.53
857.79	1665.00
857.97	1738.73
858.14	1554.41
858.32	1652.71
858.49	1621.99
858.67	1691.62
858.84	1617.90
859.02	1761.25
859.19	1626.09
859.37	1558.50
859.54	1597.42
859.72	1585.13
859.89	1656.81
860.06	1585.13
860.24	1572.84
860.41	1722.34
860.59	1636.33
860.76	1621.99
860.94	1591.27
861.11	1615.85
861.29	1699.81
861.46	1619.94
861.64	1585.13
861.81	1761.25
861.98	1730.53
862.16	1583.08
862.33	1548.26
862.51	1576.94
862.68	1675.24
862.86	1665.00
863.03	1583.08
863.21	1570.79
863.38	1599.46
863.55	1634.28
863.73	1634.28
863.90	1607.66
864.08	1519.59
864.25	1658.85
864.43	1638.38
864.60	1650.66
864.77	1654.76
864.95	1691.62
865.12	1589.22
865.30	1775.59
865.47	1744.87
865.64	1705.96
865.82	1671.14
865.99	1693.67
866.17	1716.20
866.34	1671.14
866.51	1437.67
866.69	1613.80
866.86	1705.96
867.04	1771.49
867.21	1626.09
867.38	1636.33
867.56	1648.61
867.73	1640.42
867.91	1634.28
868.08	1589.22
868.25	1621.99
868.43	1693.67
868.60	1634.28
868.78	1558.50
868.95	1679.33
869.12	1640.42
869.30	1658.85
869.47	1642.47
869.64	1646.57
869.82	1642.47
869.99	1640.42
870.16	1665.00
870.34	1716.20
870.51	1755.11
870.69	1482.73
870.86	1644.52
871.03	1714.15
871.21	1607.66
871.38	1751.01
871.55	1667.05
871.73	1609.70
871.90	1634.28
872.07	1560.55
872.25	1585.13
872.42	1554.41
872.59	1591.27
872.77	1638.38
872.94	1626.09
873.11	1665.00
873.29	1775.59
873.46	1636.33
873.63	1693.67
873.81	1658.85
873.98	1667.05
874.15	1599.46
874.33	1621.99
874.50	1624.04
874.67	1701.86
874.85	1587.18
875.02	1732.58
875.19	1587.18
875.37	1585.13
875.54	1605.61
875.71	1662.95
875.88	1691.62
876.06	1673.19
876.23	1685.48
876.40	1665.00
876.58	1675.24
876.75	1693.67
876.92	1601.51
877.10	1609.70
877.27	1681.38
877.44	1689.57
877.61	1681.38
877.79	1787.88
877.96	1615.85
878.13	1660.90
878.31	1646.57
878.48	1613.80
878.65	1648.61
878.82	1593.32
879.00	1699.81
879.17	1667.05
879.34	1667.05
879.51	1638.38
879.69	1597.42
879.86	1511.40
880.03	1656.81
880.21	1624.04
880.38	1650.66
880.55	1665.00
880.72	1734.63
880.90	1640.42
881.07	1572.84
881.24	1601.51
881.41	1578.98
881.59	1570.79
881.76	1685.48
881.93	1812.45
882.10	1671.14
882.28	1642.47
882.45	1691.62
882.62	1601.51
882.79	1665.00
882.96	1593.32
883.14	1624.04
883.31	1683.43
883.48	1523.69
883.65	1619.94
883.83	1640.42
884.00	1722.34
884.17	1605.61
884.34	1675.24
884.51	1656.81
884.69	1751.01
884.86	1660.90
885.03	1648.61
885.20	1542.12
885.38	1671.14
885.55	1695.72
885.72	1691.62
885.89	1638.38
886.06	1773.54
886.24	1611.75
886.41	1638.38
886.58	1658.85
886.75	1736.68
886.92	1638.38
887.10	1626.09
887.27	1638.38
887.44	1699.81
887.61	1730.53
887.78	1693.67
887.95	1665.00
888.13	1595.37
888.30	1597.42
888.47	1683.43
888.64	1632.23
888.81	1624.04
888.99	1585.13
889.16	1630.18
889.33	1605.61
889.50	1621.99
889.67	1720.29
889.84	1638.38
890.01	1718.25
890.19	1728.49
890.36	1591.27
890.53	1568.74
890.70	1652.71
890.87	1716.20
891.04	1638.38
891.22	1662.95
891.39	1621.99
891.56	1675.24
891.73	1705.96
891.90	1605.61
892.07	1519.59
892.24	1693.67
892.42	1648.61
892.59	1689.57
892.76	1662.95
892.93	1560.55
893.10	1660.90
893.27	1701.86
893.44	1542.12
893.61	1615.85
893.79	1662.95
893.96	1675.24
894.13	1630.18
894.30	1562.60
894.47	1687.53
894.64	1775.59
894.81	1634.28
894.98	1619.94
895.15	1685.48
895.33	1705.96
895.50	1611.75
895.67	1644.52
895.84	1705.96
896.01	1626.09
896.18	1550.31
896.35	1734.63
896.52	1585.13
896.69	1533.93
896.86	1681.38
897.04	1708.01
897.21	1646.57
897.38	1617.90
897.55	1576.94
897.72	1630.18
897.89	1595.37
898.06	1718.25
898.23	1638.38
898.40	1679.33
898.57	1699.81
898.74	1634.28
898.91	1611.75
899.08	1597.42
899.26	1621.99
899.43	1665.00
899.60	1540.07
899.77	1667.05
899.94	1613.80
900.11	1601.51
900.28	1621.99
900.45	1646.57
900.62	1626.09
900.79	1744.87
900.96	1699.81
901.13	1601.51
901.30	1576.94
901.47	1578.98
901.64	1499.11
901.81	1603.56
901.98	1636.33
902.15	1697.77
902.32	1599.46
902.49	1646.57
902.66	1677.29
902.83	1654.76
903.01	1515.50
903.18	1619.94
903.35	1609.70
903.52	1689.57
903.69	1648.61
903.86	1638.38
904.03	1605.61
904.20	1640.42
904.37	1640.42
904.54	1542.12
904.71	1660.90
904.88	1683.43
905.05	1556.46
905.22	1644.52
905.39	1578.98
905.56	1630.18
905.73	1546.22
905.90	1621.99
906.07	1632.23
906.24	1699.81
906.41	1576.94
906.58	1703.91
906.75	1630.18
906.92	1550.31
907.09	1601.51
907.26	1630.18
907.43	1540.07
907.60	1699.81
907.77	1656.81
907.93	1720.29
908.10	1617.90
908.27	1720.29
908.44	1587.18
908.61	1597.42
908.78	1648.61
908.95	1744.87
909.12	1658.85
909.29	1658.85
909.46	1652.71
909.63	1665.00
909.80	1624.04
909.97	1771.49
910.14	1648.61
910.31	1634.28
910.48	1593.32
910.65	1644.52
910.82	1660.90
910.99	1626.09
911.16	1605.61
911.33	1617.90
911.50	1677.29
911.66	1665.00
911.83	1621.99
912.00	1617.90
912.17	1548.26
912.34	1634.28
912.51	1609.70
912.68	1665.00
912.85	1642.47
913.02	1703.91
913.19	1615.85
913.36	1624.04
913.53	1757.16
913.70	1654.76
913.86	1796.07
914.03	1695.72
914.20	1716.20
914.37	1617.90
914.54	1675.24
914.71	1687.53
914.88	1650.66
915.05	1591.27
915.22	1644.52
915.39	1691.62
915.55	1564.65
915.72	1593.32
915.89	1552.36
916.06	1636.33
916.23	1650.66
916.40	1617.90
916.57	1619.94
916.74	1609.70
916.91	1630.18
917.07	1576.94
917.24	1576.94
917.41	1613.80
917.58	1646.57
917.75	1679.33
917.92	1556.46
918.09	1591.27
918.26	1658.85
918.42	1667.05
918.59	1650.66
918.76	1634.28
918.93	1542.12
919.10	1607.66
919.27	1634.28
919.44	1765.35
919.60	1646.57
919.77	1570.79
919.94	1599.46
920.11	1646.57
920.28	1669.09
920.45	1556.46
920.61	1613.80
920.78	1705.96
920.95	1742.82
921.12	1628.14
921.29	1611.75
921.46	1591.27
921.62	1507.30
921.79	1669.09
921.96	1687.53
922.13	1679.33
922.30	1679.33
922.47	1638.38
922.63	1648.61
922.80	1642.47
922.97	1581.03
923.14	1521.64
923.31	1533.93
923.47	1656.81
923.64	1847.27
923.81	1548.26
923.98	1705.96
924.15	1601.51
924.32	1675.24
924.48	1708.01
924.65	1687.53
924.82	1517.54
924.99	1558.50
925.15	1490.92
925.32	1736.68
925.49	1642.47
925.66	1703.91
925.83	1595.37
925.99	1624.04
926.16	1732.58
926.33	1609.70
926.50	1488.87
926.67	1531.88
926.83	1660.90
927.00	1703.91
927.17	1628.14
927.34	1617.90
927.50	1691.62
927.67	1804.26
927.84	1662.95
928.01	1656.81
928.17	1650.66
928.34	1642.47
928.51	1679.33
928.68	1538.02
928.84	1681.38
929.01	1578.98
929.18	1634.28
929.35	1654.76
929.51	1652.71
929.68	1576.94
929.85	1603.56
930.02	1718.25
930.18	1650.66
930.35	1699.81
930.52	1689.57
930.69	1746.92
930.85	1761.25
931.02	1626.09
931.19	1595.37
931.36	1599.46
931.52	1523.69
931.69	1724.39
931.86	1605.61
932.02	1626.09
932.19	1583.08
932.36	1669.09
932.53	1619.94
932.69	1646.57
932.86	1703.91
933.03	1626.09
933.19	1601.51
933.36	1679.33
933.53	1708.01
933.70	1642.47
933.86	1734.63
934.03	1667.05
934.20	1574.89
934.36	1710.05
934.53	1554.41
934.70	1542.12
934.86	1574.89
935.03	1603.56
935.20	1601.51
935.36	1619.94
935.53	1591.27
935.70	1556.46
935.86	1656.81
936.03	1597.42
936.20	1591.27
936.36	1667.05
936.53	1665.00
936.70	1626.09
936.86	1839.08
937.03	1601.51
937.20	1533.93
937.36	1695.72
937.53	1538.02
937.70	1554.41
937.86	1621.99
938.03	1656.81
938.20	1687.53
938.36	1572.84
938.53	1662.95
938.70	1568.74
938.86	1626.09
939.03	1638.38
939.20	1613.80
939.36	1644.52
939.53	1679.33
939.70	1861.60
939.86	1617.90
940.03	1638.38
940.19	1613.80
940.36	1724.39
940.53	1699.81
940.69	1619.94
940.86	1734.63
941.03	1665.00
941.19	1538.02
941.36	1708.01
941.52	1720.29
941.69	1650.66
941.86	1609.70
942.02	1693.67
942.19	1658.85
942.35	1742.82
942.52	1601.51
942.69	1673.19
942.85	1601.51
943.02	1634.28
943.18	1693.67
943.35	1632.23
943.52	1648.61
943.68	1587.18
943.85	1695.72
944.01	1650.66
944.18	1607.66
944.35	1660.90
944.51	1628.14
944.68	1591.27
944.84	1597.42
945.01	1538.02
945.17	1603.56
945.34	1695.72
945.51	1699.81
945.67	1617.90
945.84	1624.04
946.00	1607.66
946.17	1675.24
946.33	1648.61
946.50	1705.96
946.67	1673.19
946.83	1538.02
947.00	1667.05
947.16	1728.49
947.33	1671.14
947.49	1552.36
947.66	1589.22
947.82	1714.15
947.99	1548.26
948.16	1607.66
948.32	1617.90
948.49	1665.00
948.65	1613.80
948.82	1564.65
948.98	1621.99
949.15	1587.18
949.31	1703.91
949.48	1667.05
949.64	1611.75
949.81	1599.46
949.97	1544.17
950.14	1644.52
950.30	1507.30
950.47	1634.28
950.63	1556.46
950.80	1630.18
950.96	1632.23
951.13	1630.18
951.30	1646.57
951.46	1658.85
951.63	1808.36
951.79	1611.75
951.96	1632.23
952.12	1677.29
952.29	1708.01
952.45	1566.70
952.62	1646.57
952.78	1654.76
952.94	1624.04
953.11	1548.26
953.27	1482.73
953.44	1691.62
953.60	1705.96
953.77	1615.85
953.93	1660.90
954.10	1611.75
954.26	1630.18
954.43	1675.24
954.59	1658.85
954.76	1718.25
954.92	1624.04
955.09	1638.38
955.25	1587.18
955.42	1662.95
955.58	1689.57
955.75	1656.81
955.91	1570.79
956.07	1535.98
956.24	1667.05
956.40	1621.99
956.57	1701.86
956.73	1599.46
956.90	1656.81
957.06	1601.51
957.23	1585.13
957.39	1566.70
957.56	1488.87
957.72	1515.50
957.88	1585.13
958.05	1665.00
958.21	1744.87
958.38	1619.94
958.54	1523.69
958.71	1650.66
958.87	1578.98
959.03	1550.31
959.20	1671.14
959.36	1603.56
959.53	1607.66
959.69	1540.07
959.85	1720.29
960.02	1566.70
960.18	1589.22
960.35	1705.96
960.51	1572.84
960.68	1599.46
960.84	1542.12
961.00	1548.26
961.17	1572.84
961.33	1660.90
961.50	1615.85
961.66	1619.94
961.82	1556.46
961.99	1648.61
962.15	1679.33
962.31	1681.38
962.48	1609.70
962.64	1650.66
962.81	1630.18
962.97	1650.66
963.13	1697.77
963.30	1591.27
963.46	1566.70
963.62	1576.94
963.79	1689.57
963.95	1609.70
964.12	1554.41
964.28	1685.48
964.44	1570.79
964.61	1679.33
964.77	1628.14
964.93	1679.33
965.10	1599.46
965.26	1595.37
965.42	1613.80
965.59	1617.90
965.75	1535.98
965.92	1697.77
966.08	1636.33
966.24	1712.10
966.41	1605.61
966.57	1617.90
966.73	1611.75
966.90	1665.00
967.06	1634.28
967.22	1601.51
967.39	1605.61
967.55	1630.18
967.71	1591.27
967.88	1591.27
968.04	1597.42
968.20	1597.42
968.37	1679.33
968.53	1535.98
968.69	1650.66
968.85	1650.66
969.02	1638.38
969.18	1683.43
969.34	1621.99
969.51	1632.23
969.67	1665.00
969.83	1585.13
970.00	1699.81
970.16	1675.24
970.32	1591.27
970.48	1783.78
970.65	1632.23
970.81	1626.09
970.97	1578.98
971.14	1490.92
971.30	1724.39
971.46	1609.70
971.63	1671.14
971.79	1724.39
971.95	1628.14
972.11	1601.51
972.28	1644.52
972.44	1595.37
972.60	1552.36
972.76	1638.38
972.93	1626.09
973.09	1617.90
973.25	1697.77
973.42	1587.18
973.58	1687.53
973.74	1619.94
973.90	1572.84
974.07	1621.99
974.23	1595.37
974.39	1699.81
974.55	1660.90
974.72	1609.70
974.88	1603.56
975.04	1667.05
975.20	1605.61
975.37	1689.57
975.53	1621.99
975.69	1638.38
975.85	1523.69
976.01	1601.51
976.18	1613.80
976.34	1638.38
976.50	1751.01
976.66	1794.02
976.83	1654.76
976.99	1624.04
977.15	1646.57
977.31	1460.20
977.47	1726.44
977.64	1675.24
977.80	1515.50
977.96	1619.94
978.12	1613.80
978.29	1585.13
978.45	1576.94
978.61	1591.27
978.77	1734.63
978.93	1540.07
979.10	1621.99
979.26	1673.19
979.42	1630.18
979.58	1546.22
979.74	1611.75
979.91	1658.85
980.07	1509.35
980.23	1656.81
980.39	1554.41
980.55	1636.33
980.71	1572.84
980.88	1554.41
981.04	1626.09
981.20	1597.42
981.36	1669.09
981.52	1617.90
981.68	1619.94
981.85	1566.70
982.01	1583.08
982.17	1558.50
982.33	1599.46
982.49	1646.57
982.65	1642.47
982.82	1626.09
982.98	1589.22
983.14	1490.92
983.30	1601.51
983.46	1679.33
983.62	1699.81
983.79	1611.75
983.95	1605.61
984.11	1480.68
984.27	1607.66
984.43	1679.33
984.59	1615.85
984.75	1708.01
984.91	1687.53
985.08	1703.91
985.24	1531.88
985.40	1540.07
985.56	1624.04
985.72	1703.91
985.88	1691.62
986.04	1609.70
986.20	1613.80
986.37	1538.02
986.53	1652.71
986.69	1619.94
986.85	1492.97
987.01	1619.94
987.17	1656.81
987.33	1591.27
987.49	1601.51
987.65	1634.28
987.82	1576.94
987.98	1581.03
988.14	1683.43
988.30	1646.57
988.46	1517.54
988.62	1576.94
988.78	1597.42
988.94	1624.04
989.10	1581.03
989.26	1595.37
989.42	1581.03
989.59	1595.37
989.75	1705.96
989.91	1708.01
990.07	1535.98
990.23	1642.47
990.39	1679.33
990.55	1648.61
990.71	1535.98
990.87	1671.14
991.03	1685.48
991.19	1523.69
991.35	1554.41
991.51	1593.32
991.67	1691.62
991.83	1583.08
992.00	1599.46
992.16	1609.70
992.32	1646.57
992.48	1662.95
992.64	1542.12
992.80	1607.66
992.96	1615.85
993.12	1693.67
993.28	1691.62
993.44	1632.23
993.60	1636.33
993.76	1613.80
993.92	1574.89
994.08	1613.80
994.24	1566.70
994.40	1601.51
994.56	1673.19
994.72	1603.56
994.88	1531.88
995.04	1576.94
995.20	1665.00
995.36	1566.70
995.52	1691.62
995.68	1570.79
995.84	1603.56
996.00	1705.96
996.16	1652.71
996.32	1591.27
996.48	1630.18
996.64	1695.72
996.80	1595.37
996.96	1650.66
997.12	1587.18
997.28	1538.02
997.44	1599.46
997.60	1617.90
997.76	1671.14
997.92	1546.22
998.08	1581.03
998.24	1542.12
998.40	1640.42
998.56	1611.75
998.72	1533.93
998.88	1593.32
999.04	1689.57
999.20	1644.52
999.36	1535.98
999.52	1722.34
999.68	1540.07
999.84	1640.42
1000.00	1640.42
1000.16	1642.47
1000.32	1527.78
1000.48	1779.68
1000.64	1587.18
1000.80	1558.50
1000.95	1554.41
1001.11	1650.66
1001.27	1542.12
1001.43	1726.44
1001.59	1568.74
1001.75	1544.17
1001.91	1578.98
1002.07	1525.74
1002.23	1583.08
1002.39	1617.90
1002.55	1574.89
1002.71	1617.90
1002.87	1589.22
1003.03	1560.55
1003.19	1583.08
1003.34	1660.90
1003.50	1554.41
1003.66	1689.57
1003.82	1671.14
1003.98	1576.94
1004.14	1650.66
1004.30	1671.14
1004.46	1607.66
1004.62	1609.70
1004.78	1675.24
1004.94	1656.81
1005.09	1728.49
1005.25	1615.85
1005.41	1593.32
1005.57	1660.90
1005.73	1689.57
1005.89	1574.89
1006.05	1634.28
1006.21	1595.37
1006.37	1581.03
1006.52	1558.50
1006.68	1546.22
1006.84	1765.35
1007.00	1513.45
1007.16	1630.18
1007.32	1597.42
1007.48	1624.04
1007.64	1595.37
1007.79	1585.13
1007.95	1613.80
1008.11	1675.24
1008.27	1593.32
1008.43	1591.27
1008.59	1570.79
1008.75	1632.23
1008.91	1634.28
1009.06	1525.74
1009.22	1662.95
1009.38	1576.94
1009.54	1628.14
1009.70	1576.94
1009.86	1640.42
1010.01	1699.81
1010.17	1540.07
1010.33	1591.27
1010.49	1671.14
1010.65	1564.65
1010.81	1650.66
1010.96	1628.14
1011.12	1558.50
1011.28	1632.23
1011.44	1667.05
1011.60	1589.22
1011.76	1621.99
1011.91	1697.77
1012.07	1605.61
1012.23	1546.22
1012.39	1591.27
1012.55	1650.66
1012.71	1546.22
1012.86	1619.94
1013.02	1626.09
1013.18	1605.61
1013.34	1617.90
1013.50	1630.18
1013.65	1658.85
1013.81	1595.37
1013.97	1634.28
1014.13	1658.85
1014.29	1624.04
1014.44	1675.24
1014.60	1673.19
1014.76	1581.03
1014.92	1574.89
1015.07	1589.22
1015.23	1550.31
1015.39	1560.55
1015.55	1630.18
1015.71	1609.70
1015.86	1552.36
1016.02	1583.08
1016.18	1552.36
1016.34	1507.30
1016.49	1646.57
1016.65	1607.66
1016.81	1585.13
1016.97	1566.70
1017.12	1732.58
1017.28	1550.31
1017.44	1548.26
1017.60	1540.07
1017.75	1652.71
1017.91	1601.51
1018.07	1597.42
1018.23	1556.46
1018.38	1626.09
1018.54	1591.27
1018.70	1560.55
1018.86	1624.04
1019.01	1621.99
1019.17	1611.75
1019.33	1646.57
1019.49	1581.03
1019.64	1660.90
1019.80	1605.61
1019.96	1708.01
1020.12	1621.99
1020.27	1527.78
1020.43	1548.26
1020.59	1658.85
1020.74	1626.09
1020.90	1648.61
1021.06	1564.65
1021.22	1708.01
1021.37	1576.94
1021.53	1591.27
1021.69	1640.42
1021.84	1544.17
1022.00	1619.94
1022.16	1572.84
1022.31	1617.90
1022.47	1632.23
1022.63	1699.81
1022.79	1564.65
1022.94	1619.94
1023.10	1718.25
1023.26	1589.22
1023.41	1538.02
1023.57	1679.33
1023.73	1636.33
1023.88	1611.75
1024.04	1581.03
1024.20	1609.70
1024.35	1636.33
1024.51	1671.14
1024.67	1591.27
1024.82	1626.09
1024.98	1552.36
1025.14	1632.23
1025.29	1648.61
1025.45	1619.94
1025.61	1607.66
1025.76	1689.57
1025.92	1650.66
1026.08	1646.57
1026.23	1646.57
1026.39	1683.43
1026.55	1617.90
1026.70	1578.98
1026.86	1595.37
1027.02	1624.04
1027.17	1632.23
1027.33	1626.09
1027.48	1626.09
1027.64	1581.03
1027.80	1617.90
1027.95	1656.81
1028.11	1619.94
1028.27	1611.75
1028.42	1697.77
1028.58	1648.61
1028.73	1552.36
1028.89	1517.54
1029.05	1716.20
1029.20	1648.61
>>>>>End Processed Spectral Data<<<<<
