SpectraSuite Data File
++++++++++++++++++++++++++++++++++++
Date: Fri Jun 02 14:49:23 CEST 2017
User: INFO_000
Dark Spectrum Present: No
Reference Spectrum Present: No
Number of Sampled Component Spectra: 1
Spectrometers: USB4H00879
Integration Time (usec): 80000 (USB4H00879)
Spectra Averaged: 1 (USB4H00879)
Boxcar Smoothing: 0 (USB4H00879)
Correct for Electrical Dark: No (USB4H00879)
Strobe/Lamp Enabled: No (USB4H00879)
Correct for Detector Non-linearity: No (USB4H00879)
Correct for Stray Light: No (USB4H00879)
Number of Pixels in Processed Spectrum: 3648
>>>>>Begin Processed Spectral Data<<<<<
345.13	1294.32
345.34	1294.32
345.56	1294.32
345.78	1273.84
345.99	1296.36
346.21	1759.21
346.42	1759.21
346.64	1630.18
346.86	1722.34
347.07	1621.99
347.29	1689.57
347.50	1638.38
347.72	1685.48
347.94	1738.73
348.15	1630.18
348.37	1648.61
348.59	1679.33
348.80	1636.33
349.02	1658.85
349.23	1667.05
349.45	1722.34
349.67	1710.05
349.88	1691.62
350.10	1812.45
350.31	1687.53
350.53	1740.77
350.75	1748.97
350.96	1716.20
351.18	1722.34
351.39	1777.64
351.61	1667.05
351.82	1765.35
352.04	1814.50
352.26	1710.05
352.47	1718.25
352.69	1789.92
352.90	1632.23
353.12	1624.04
353.34	1650.66
353.55	1834.98
353.77	1703.91
353.98	1599.46
354.20	1726.44
354.41	1773.54
354.63	1777.64
354.85	1841.12
355.06	1761.25
355.28	1615.85
355.49	1646.57
355.71	1697.77
355.92	1708.01
356.14	1777.64
356.35	1679.33
356.57	1671.14
356.79	1724.39
357.00	1607.66
357.22	1773.54
357.43	1626.09
357.65	1771.49
357.86	1724.39
358.08	1677.29
358.29	1691.62
358.51	1734.63
358.72	1763.30
358.94	1677.29
359.16	1689.57
359.37	1767.40
359.59	1720.29
359.80	1753.06
360.02	1677.29
360.23	1724.39
360.45	1757.16
360.66	1705.96
360.88	1646.57
361.09	1687.53
361.31	1701.86
361.52	1667.05
361.74	1853.41
361.95	1867.75
362.17	1738.73
362.38	1820.64
362.60	1699.81
362.81	1722.34
363.03	1687.53
363.24	1642.47
363.46	1802.21
363.67	1773.54
363.89	1636.33
364.10	1738.73
364.32	1667.05
364.53	1765.35
364.75	1642.47
364.96	1732.58
365.18	1775.59
365.39	1658.85
365.61	1609.70
365.82	1777.64
366.04	1716.20
366.25	1648.61
366.47	1665.00
366.68	1732.58
366.90	1654.76
367.11	1689.57
367.33	1779.68
367.54	1710.05
367.76	1597.42
367.97	1796.07
368.19	1693.67
368.40	1761.25
368.62	1650.66
368.83	1642.47
369.05	1783.78
369.26	1624.04
369.48	1677.29
369.69	1693.67
369.91	1677.29
370.12	1679.33
370.33	1775.59
370.55	1673.19
370.76	1662.95
370.98	1761.25
371.19	1673.19
371.41	1726.44
371.62	1708.01
371.84	1589.22
372.05	1914.85
372.27	1705.96
372.48	1679.33
372.69	1677.29
372.91	1781.73
373.12	1705.96
373.34	1671.14
373.55	1671.14
373.77	1800.16
373.98	1662.95
374.20	1751.01
374.41	1804.26
374.62	1662.95
374.84	1697.77
375.05	1683.43
375.27	1730.53
375.48	1695.72
375.70	1673.19
375.91	1748.97
376.12	1822.69
376.34	1691.62
376.55	1689.57
376.77	1751.01
376.98	1654.76
377.19	1667.05
377.41	1656.81
377.62	1710.05
377.84	1818.60
378.05	1837.03
378.27	1679.33
378.48	1800.16
378.69	1847.27
378.91	1798.12
379.12	1714.15
379.34	1722.34
379.55	1689.57
379.76	1695.72
379.98	1636.33
380.19	1744.87
380.41	1765.35
380.62	1714.15
380.83	1636.33
381.05	1708.01
381.26	1802.21
381.47	1638.38
381.69	1740.77
381.90	1728.49
382.12	1689.57
382.33	1634.28
382.54	1630.18
382.76	1691.62
382.97	1650.66
383.19	1671.14
383.40	1679.33
383.61	1660.90
383.83	1650.66
384.04	1646.57
384.25	1755.11
384.47	1728.49
384.68	1726.44
384.89	1689.57
385.11	1613.80
385.32	1716.20
385.54	1636.33
385.75	1724.39
385.96	1652.71
386.18	1675.24
386.39	1615.85
386.60	1605.61
386.82	1705.96
387.03	1769.44
387.24	1728.49
387.46	1759.21
387.67	1675.24
387.88	1769.44
388.10	1673.19
388.31	1697.77
388.52	1675.24
388.74	1730.53
388.95	1685.48
389.16	1669.09
389.38	1640.42
389.59	1744.87
389.80	1753.06
390.02	1679.33
390.23	1746.92
390.44	1701.86
390.66	1679.33
390.87	1634.28
391.08	1736.68
391.30	1826.79
391.51	1794.02
391.72	1753.06
391.94	1708.01
392.15	1714.15
392.36	1685.48
392.58	1634.28
392.79	1724.39
393.00	1746.92
393.22	1705.96
393.43	1718.25
393.64	1769.44
393.85	1765.35
394.07	1665.00
394.28	1781.73
394.49	1787.88
394.71	1748.97
394.92	1767.40
395.13	1607.66
395.35	1615.85
395.56	1665.00
395.77	1697.77
395.98	1748.97
396.20	1728.49
396.41	1736.68
396.62	1759.21
396.84	1609.70
397.05	1685.48
397.26	1675.24
397.47	1816.55
397.69	1665.00
397.90	1796.07
398.11	1708.01
398.32	1619.94
398.54	1699.81
398.75	1669.09
398.96	1732.58
399.18	1798.12
399.39	1710.05
399.60	1675.24
399.81	1699.81
400.03	1642.47
400.24	1927.14
400.45	1746.92
400.66	1748.97
400.88	1624.04
401.09	1910.75
401.30	1728.49
401.51	1843.17
401.73	1769.44
401.94	1761.25
402.15	1693.67
402.36	1755.11
402.58	1667.05
402.79	1765.35
403.00	1669.09
403.21	1771.49
403.43	1740.77
403.64	1722.34
403.85	1693.67
404.06	1771.49
404.27	1624.04
404.49	1730.53
404.70	1726.44
404.91	1785.83
405.12	1738.73
405.34	1773.54
405.55	1802.21
405.76	1638.38
405.97	1650.66
406.19	1814.50
406.40	1617.90
406.61	1710.05
406.82	1667.05
407.03	1724.39
407.25	1615.85
407.46	1714.15
407.67	1742.82
407.88	1918.95
408.09	1753.06
408.31	1662.95
408.52	1685.48
408.73	1581.03
408.94	1710.05
409.15	1662.95
409.37	1796.07
409.58	1748.97
409.79	1738.73
410.00	1798.12
410.21	1677.29
410.43	1701.86
410.64	1621.99
410.85	1744.87
411.06	1669.09
411.27	1660.90
411.48	1812.45
411.70	1648.61
411.91	1714.15
412.12	1738.73
412.33	1800.16
412.54	1718.25
412.76	1730.53
412.97	1880.04
413.18	1791.97
413.39	1753.06
413.60	1691.62
413.81	1759.21
414.03	1681.38
414.24	1626.09
414.45	1880.04
414.66	1638.38
414.87	1751.01
415.08	1679.33
415.30	1730.53
415.51	1705.96
415.72	1665.00
415.93	1624.04
416.14	1736.68
416.35	1708.01
416.56	1748.97
416.78	1714.15
416.99	1703.91
417.20	1757.16
417.41	1802.21
417.62	1732.58
417.83	1798.12
418.04	1710.05
418.26	1791.97
418.47	1587.18
418.68	1744.87
418.89	1753.06
419.10	1886.18
419.31	1728.49
419.52	1755.11
419.73	1728.49
419.95	1722.34
420.16	1660.90
420.37	1665.00
420.58	1761.25
420.79	1576.94
421.00	1710.05
421.21	1644.52
421.42	1677.29
421.63	1751.01
421.85	1601.51
422.06	1671.14
422.27	1634.28
422.48	1699.81
422.69	1726.44
422.90	1640.42
423.11	1669.09
423.32	1798.12
423.53	1742.82
423.75	1636.33
423.96	1710.05
424.17	1732.58
424.38	1769.44
424.59	1746.92
424.80	1656.81
425.01	1679.33
425.22	1624.04
425.43	1701.86
425.64	1853.41
425.85	1726.44
426.06	1777.64
426.28	1710.05
426.49	1667.05
426.70	1656.81
426.91	1665.00
427.12	1683.43
427.33	1691.62
427.54	1644.52
427.75	1714.15
427.96	1714.15
428.17	1685.48
428.38	1710.05
428.59	1683.43
428.80	1714.15
429.01	1638.38
429.23	1687.53
429.44	1705.96
429.65	1730.53
429.86	1714.15
430.07	1681.38
430.28	1679.33
430.49	1759.21
430.70	1730.53
430.91	1851.36
431.12	1603.56
431.33	1660.90
431.54	1732.58
431.75	1740.77
431.96	1716.20
432.17	1697.77
432.38	1765.35
432.59	1761.25
432.80	1812.45
433.01	1665.00
433.22	1642.47
433.43	1751.01
433.64	1710.05
433.85	1738.73
434.06	1693.67
434.27	1671.14
434.49	1675.24
434.70	1822.69
434.91	1665.00
435.12	1695.72
435.33	1675.24
435.54	1665.00
435.75	1650.66
435.96	1695.72
436.17	1671.14
436.38	1802.21
436.59	1708.01
436.80	1665.00
437.01	1773.54
437.22	1783.78
437.43	1656.81
437.64	1642.47
437.85	1753.06
438.06	1759.21
438.27	1755.11
438.48	1716.20
438.69	1630.18
438.90	1607.66
439.11	1722.34
439.32	1843.17
439.53	1615.85
439.74	1695.72
439.95	1665.00
440.16	1630.18
440.37	1818.60
440.57	1650.66
440.78	1716.20
440.99	1712.10
441.20	1722.34
441.41	1589.22
441.62	1697.77
441.83	1628.14
442.04	1701.86
442.25	1667.05
442.46	1550.31
442.67	1656.81
442.88	1802.21
443.09	1701.86
443.30	1687.53
443.51	1611.75
443.72	1722.34
443.93	1783.78
444.14	1673.19
444.35	1630.18
444.56	1617.90
444.77	1636.33
444.98	1699.81
445.19	1763.30
445.40	1667.05
445.61	1589.22
445.81	1632.23
446.02	1757.16
446.23	1716.20
446.44	1607.66
446.65	1650.66
446.86	1757.16
447.07	1802.21
447.28	1673.19
447.49	1767.40
447.70	1613.80
447.91	1771.49
448.12	1677.29
448.33	1708.01
448.54	1675.24
448.74	1685.48
448.95	1671.14
449.16	1777.64
449.37	1781.73
449.58	1656.81
449.79	1830.88
450.00	1669.09
450.21	1669.09
450.42	1699.81
450.63	1679.33
450.84	1578.98
451.05	1728.49
451.25	1644.52
451.46	1660.90
451.67	1828.84
451.88	1710.05
452.09	1693.67
452.30	1613.80
452.51	1656.81
452.72	1773.54
452.93	1767.40
453.13	1646.57
453.34	1578.98
453.55	1695.72
453.76	1705.96
453.97	1665.00
454.18	1550.31
454.39	1693.67
454.60	1740.77
454.81	1761.25
455.01	1669.09
455.22	1595.37
455.43	1662.95
455.64	1708.01
455.85	1781.73
456.06	1765.35
456.27	1722.34
456.48	1703.91
456.68	1652.71
456.89	1677.29
457.10	1712.10
457.31	1691.62
457.52	1740.77
457.73	1732.58
457.94	1730.53
458.14	1601.51
458.35	1765.35
458.56	1699.81
458.77	1701.86
458.98	1673.19
459.19	1638.38
459.39	1718.25
459.60	1689.57
459.81	1583.08
460.02	1691.62
460.23	1703.91
460.44	1621.99
460.65	1701.86
460.85	1740.77
461.06	1673.19
461.27	1675.24
461.48	1687.53
461.69	1621.99
461.89	1609.70
462.10	1669.09
462.31	1662.95
462.52	1617.90
462.73	1576.94
462.94	1720.29
463.14	1697.77
463.35	1652.71
463.56	1828.84
463.77	1705.96
463.98	1613.80
464.18	1681.38
464.39	1740.77
464.60	1720.29
464.81	1607.66
465.02	1789.92
465.23	1761.25
465.43	1689.57
465.64	1624.04
465.85	1617.90
466.06	1722.34
466.27	1673.19
466.47	1693.67
466.68	1853.41
466.89	1640.42
467.10	1613.80
467.30	1630.18
467.51	1757.16
467.72	1695.72
467.93	1550.31
468.14	1638.38
468.34	1671.14
468.55	1722.34
468.76	1794.02
468.97	1634.28
469.17	1753.06
469.38	1732.58
469.59	1777.64
469.80	1654.76
470.01	1716.20
470.21	1658.85
470.42	1630.18
470.63	1804.26
470.84	1724.39
471.04	1705.96
471.25	1738.73
471.46	1751.01
471.67	1832.93
471.87	1640.42
472.08	1695.72
472.29	1660.90
472.50	1716.20
472.70	1671.14
472.91	1624.04
473.12	1607.66
473.33	1656.81
473.53	1708.01
473.74	1617.90
473.95	1730.53
474.16	1714.15
474.36	1691.62
474.57	1736.68
474.78	1679.33
474.99	1789.92
475.19	1822.69
475.40	1714.15
475.61	1771.49
475.81	1781.73
476.02	1677.29
476.23	1755.11
476.44	1613.80
476.64	1624.04
476.85	1656.81
477.06	1759.21
477.27	1722.34
477.47	1828.84
477.68	1677.29
477.89	1607.66
478.09	1773.54
478.30	1738.73
478.51	1710.05
478.71	1689.57
478.92	1755.11
479.13	1691.62
479.34	1697.77
479.54	1728.49
479.75	1646.57
479.96	1693.67
480.16	1714.15
480.37	1648.61
480.58	1701.86
480.78	1740.77
480.99	1640.42
481.20	1712.10
481.41	1585.13
481.61	1787.88
481.82	1740.77
482.03	1626.09
482.23	1646.57
482.44	1718.25
482.65	1855.46
482.85	1724.39
483.06	1718.25
483.27	1701.86
483.47	1665.00
483.68	1705.96
483.89	1714.15
484.09	1724.39
484.30	1687.53
484.51	1767.40
484.71	1605.61
484.92	1638.38
485.13	1730.53
485.33	1662.95
485.54	1671.14
485.75	1667.05
485.95	1822.69
486.16	1685.48
486.37	1777.64
486.57	1599.46
486.78	1712.10
486.98	1722.34
487.19	1673.19
487.40	1728.49
487.60	1681.38
487.81	1597.42
488.02	1617.90
488.22	1650.66
488.43	1796.07
488.64	1728.49
488.84	1665.00
489.05	1683.43
489.25	1777.64
489.46	1679.33
489.67	1644.52
489.87	1710.05
490.08	1675.24
490.29	1667.05
490.49	1810.40
490.70	1730.53
490.90	1712.10
491.11	1728.49
491.32	1677.29
491.52	1683.43
491.73	1665.00
491.94	1638.38
492.14	1609.70
492.35	1744.87
492.55	1787.88
492.76	1703.91
492.97	1673.19
493.17	1665.00
493.38	1785.83
493.58	1845.22
493.79	1718.25
494.00	1789.92
494.20	1632.23
494.41	1755.11
494.61	1712.10
494.82	1714.15
495.02	1609.70
495.23	1748.97
495.44	1656.81
495.64	1689.57
495.85	1642.47
496.05	1777.64
496.26	1693.67
496.47	1699.81
496.67	1671.14
496.88	1716.20
497.08	1667.05
497.29	1658.85
497.49	1746.92
497.70	1699.81
497.91	1617.90
498.11	1777.64
498.32	1722.34
498.52	1732.58
498.73	1701.86
498.93	1736.68
499.14	1816.55
499.34	1748.97
499.55	1726.44
499.76	1617.90
499.96	1703.91
500.17	1675.24
500.37	1667.05
500.58	1683.43
500.78	1728.49
500.99	1716.20
501.19	1708.01
501.40	1732.58
501.60	1667.05
501.81	1665.00
502.02	1742.82
502.22	1689.57
502.43	1701.86
502.63	1830.88
502.84	1753.06
503.04	1642.47
503.25	1736.68
503.45	1689.57
503.66	1578.98
503.86	1722.34
504.07	1796.07
504.27	1656.81
504.48	1675.24
504.68	1658.85
504.89	1841.12
505.09	1658.85
505.30	1662.95
505.50	1722.34
505.71	1781.73
505.91	1740.77
506.12	1726.44
506.32	1716.20
506.53	1613.80
506.73	1644.52
506.94	1699.81
507.14	1699.81
507.35	1818.60
507.55	1746.92
507.76	1691.62
507.96	1691.62
508.17	1736.68
508.37	1591.27
508.58	1765.35
508.78	1785.83
508.99	1826.79
509.19	1775.59
509.40	1660.90
509.60	1687.53
509.81	1734.63
510.01	1576.94
510.22	1562.60
510.42	1736.68
510.63	1789.92
510.83	1701.86
511.04	1667.05
511.24	1783.78
511.44	1705.96
511.65	1685.48
511.85	1755.11
512.06	1705.96
512.26	1701.86
512.47	1806.31
512.67	1667.05
512.88	1732.58
513.08	1589.22
513.29	1740.77
513.49	1671.14
513.69	1654.76
513.90	1714.15
514.10	1810.40
514.31	1781.73
514.51	1712.10
514.72	1751.01
514.92	1798.12
515.13	1669.09
515.33	1658.85
515.53	1662.95
515.74	1697.77
515.94	1708.01
516.15	1816.55
516.35	1546.22
516.56	1679.33
516.76	1578.98
516.96	1658.85
517.17	1693.67
517.37	1814.50
517.58	1632.23
517.78	1697.77
517.99	1748.97
518.19	1808.36
518.39	1720.29
518.60	1820.64
518.80	1662.95
519.01	1783.78
519.21	1771.49
519.41	1742.82
519.62	1617.90
519.82	1712.10
520.03	1658.85
520.23	1671.14
520.43	1638.38
520.64	1761.25
520.84	1796.07
521.05	1632.23
521.25	1742.82
521.45	1710.05
521.66	1681.38
521.86	1683.43
522.07	1646.57
522.27	1761.25
522.47	1570.79
522.68	1646.57
522.88	1697.77
523.08	1712.10
523.29	1662.95
523.49	1640.42
523.70	1650.66
523.90	1687.53
524.10	1699.81
524.31	1728.49
524.51	1519.59
524.71	1810.40
524.92	1693.67
525.12	1611.75
525.33	1728.49
525.53	1683.43
525.73	1687.53
525.94	1708.01
526.14	1636.33
526.34	1665.00
526.55	1681.38
526.75	1693.67
526.95	1828.84
527.16	1585.13
527.36	1722.34
527.56	1726.44
527.77	1683.43
527.97	1734.63
528.17	1736.68
528.38	1665.00
528.58	1718.25
528.78	1720.29
528.99	1638.38
529.19	1634.28
529.39	1589.22
529.60	1638.38
529.80	1748.97
530.00	1757.16
530.21	1703.91
530.41	1695.72
530.61	1720.29
530.82	1681.38
531.02	1671.14
531.22	1748.97
531.43	1753.06
531.63	1671.14
531.83	1736.68
532.04	1693.67
532.24	1660.90
532.44	1634.28
532.64	1755.11
532.85	1679.33
533.05	1648.61
533.25	1599.46
533.46	1730.53
533.66	1695.72
533.86	1591.27
534.07	1708.01
534.27	1710.05
534.47	1738.73
534.67	1658.85
534.88	1685.48
535.08	1728.49
535.28	1710.05
535.49	1697.77
535.69	1822.69
535.89	1687.53
536.09	1763.30
536.30	1771.49
536.50	1658.85
536.70	1712.10
536.91	1617.90
537.11	1771.49
537.31	1705.96
537.51	1744.87
537.72	1703.91
537.92	1767.40
538.12	1730.53
538.32	1708.01
538.53	1689.57
538.73	1675.24
538.93	1726.44
539.13	1689.57
539.34	1806.31
539.54	1613.80
539.74	1677.29
539.94	1660.90
540.15	1712.10
540.35	1763.30
540.55	1654.76
540.75	1621.99
540.96	1755.11
541.16	1699.81
541.36	1714.15
541.56	1798.12
541.77	1832.93
541.97	1744.87
542.17	1597.42
542.37	1816.55
542.58	1689.57
542.78	1746.92
542.98	1714.15
543.18	1742.82
543.38	1761.25
543.59	1738.73
543.79	1724.39
543.99	1656.81
544.19	1697.77
544.40	1769.44
544.60	1644.52
544.80	1679.33
545.00	1656.81
545.20	1779.68
545.41	1675.24
545.61	1669.09
545.81	1662.95
546.01	1705.96
546.21	1705.96
546.42	1681.38
546.62	1771.49
546.82	1617.90
547.02	1740.77
547.22	1697.77
547.43	1740.77
547.63	1671.14
547.83	1656.81
548.03	1683.43
548.23	1800.16
548.44	1751.01
548.64	1681.38
548.84	1755.11
549.04	1736.68
549.24	1824.74
549.45	2011.11
549.65	1621.99
549.85	1748.97
550.05	1677.29
550.25	1564.65
550.45	1851.36
550.66	1708.01
550.86	1642.47
551.06	1746.92
551.26	1640.42
551.46	1681.38
551.66	1689.57
551.87	1816.55
552.07	1753.06
552.27	1687.53
552.47	1751.01
552.67	1718.25
552.87	1734.63
553.07	1679.33
553.28	1689.57
553.48	1667.05
553.68	1597.42
553.88	1818.60
554.08	1744.87
554.28	1662.95
554.48	1662.95
554.69	1703.91
554.89	1689.57
555.09	1638.38
555.29	1609.70
555.49	1720.29
555.69	1675.24
555.89	1732.58
556.10	1724.39
556.30	1658.85
556.50	1640.42
556.70	1726.44
556.90	1697.77
557.10	1679.33
557.30	1683.43
557.50	1701.86
557.70	1675.24
557.91	1685.48
558.11	1738.73
558.31	1841.12
558.51	1634.28
558.71	1755.11
558.91	1732.58
559.11	1636.33
559.31	1585.13
559.51	1693.67
559.72	1742.82
559.92	1681.38
560.12	1689.57
560.32	1753.06
560.52	1742.82
560.72	1611.75
560.92	1783.78
561.12	1769.44
561.32	1648.61
561.52	1683.43
561.72	1861.60
561.93	1724.39
562.13	1673.19
562.33	1650.66
562.53	1685.48
562.73	1677.29
562.93	1662.95
563.13	1746.92
563.33	1761.25
563.53	1722.34
563.73	1761.25
563.93	1748.97
564.13	1794.02
564.33	1689.57
564.53	1712.10
564.74	1654.76
564.94	1624.04
565.14	1699.81
565.34	1755.11
565.54	1718.25
565.74	1681.38
565.94	1626.09
566.14	1751.01
566.34	1744.87
566.54	1722.34
566.74	1677.29
566.94	1736.68
567.14	1722.34
567.34	1699.81
567.54	1693.67
567.74	1720.29
567.94	1693.67
568.14	1654.76
568.34	1898.47
568.54	1703.91
568.74	1716.20
568.94	1777.64
569.14	1853.41
569.34	1701.86
569.54	1609.70
569.75	1695.72
569.95	1695.72
570.15	1787.88
570.35	1712.10
570.55	1744.87
570.75	1642.47
570.95	1806.31
571.15	1708.01
571.35	1630.18
571.55	1665.00
571.75	1724.39
571.95	1703.91
572.15	1642.47
572.35	1630.18
572.55	1665.00
572.75	1699.81
572.95	1568.74
573.15	1748.97
573.35	1763.30
573.55	1804.26
573.75	1656.81
573.95	1783.78
574.15	1701.86
574.35	1734.63
574.55	1679.33
574.75	1675.24
574.95	1699.81
575.15	1681.38
575.34	1714.15
575.54	1650.66
575.74	1652.71
575.94	1683.43
576.14	1624.04
576.34	1667.05
576.54	1656.81
576.74	1787.88
576.94	1638.38
577.14	1699.81
577.34	1791.97
577.54	1683.43
577.74	1595.37
577.94	1615.85
578.14	1613.80
578.34	1673.19
578.54	1636.33
578.74	1759.21
578.94	1740.77
579.14	1806.31
579.34	1583.08
579.54	1837.03
579.74	1751.01
579.94	1605.61
580.13	1710.05
580.33	1681.38
580.53	1687.53
580.73	1697.77
580.93	1751.01
581.13	1687.53
581.33	1693.67
581.53	1626.09
581.73	1783.78
581.93	1658.85
582.13	1796.07
582.33	1703.91
582.53	1605.61
582.73	1699.81
582.92	1650.66
583.12	1814.50
583.32	1679.33
583.52	1789.92
583.72	1712.10
583.92	1763.30
584.12	1796.07
584.32	1759.21
584.52	1632.23
584.72	1597.42
584.92	1703.91
585.11	1718.25
585.31	1765.35
585.51	1628.14
585.71	1714.15
585.91	1855.46
586.11	1693.67
586.31	1642.47
586.51	1751.01
586.71	1724.39
586.91	1691.62
587.10	1699.81
587.30	1834.98
587.50	1746.92
587.70	1677.29
587.90	1724.39
588.10	1636.33
588.30	1646.57
588.50	1738.73
588.69	1601.51
588.89	1699.81
589.09	1695.72
589.29	1673.19
589.49	1658.85
589.69	1652.71
589.89	1716.20
590.08	1777.64
590.28	1642.47
590.48	1724.39
590.68	1703.91
590.88	1699.81
591.08	1716.20
591.28	1732.58
591.47	1697.77
591.67	1628.14
591.87	1708.01
592.07	1785.83
592.27	1654.76
592.47	1689.57
592.67	1732.58
592.86	1689.57
593.06	1748.97
593.26	1734.63
593.46	1781.73
593.66	1687.53
593.86	1675.24
594.05	1730.53
594.25	1685.48
594.45	1693.67
594.65	1810.40
594.85	1755.11
595.05	1658.85
595.24	1624.04
595.44	1738.73
595.64	1615.85
595.84	1826.79
596.04	1691.62
596.23	1689.57
596.43	1644.52
596.63	1699.81
596.83	1660.90
597.03	1820.64
597.22	1681.38
597.42	1728.49
597.62	1763.30
597.82	1716.20
598.02	1755.11
598.21	1671.14
598.41	1705.96
598.61	1705.96
598.81	1642.47
599.01	1718.25
599.20	1693.67
599.40	1638.38
599.60	1740.77
599.80	1650.66
600.00	1806.31
600.19	1699.81
600.39	1667.05
600.59	1806.31
600.79	1796.07
600.98	1720.29
601.18	1693.67
601.38	1769.44
601.58	1601.51
601.78	1724.39
601.97	1759.21
602.17	1722.34
602.37	1636.33
602.57	1738.73
602.76	1789.92
602.96	1714.15
603.16	1601.51
603.36	1773.54
603.55	1746.92
603.75	1738.73
603.95	1716.20
604.15	1732.58
604.34	1679.33
604.54	1693.67
604.74	1769.44
604.94	1773.54
605.13	1638.38
605.33	1658.85
605.53	1681.38
605.73	1734.63
605.92	1683.43
606.12	1722.34
606.32	1710.05
606.52	1746.92
606.71	1708.01
606.91	1736.68
607.11	1607.66
607.30	1748.97
607.50	1681.38
607.70	1798.12
607.90	1691.62
608.09	1665.00
608.29	1699.81
608.49	1816.55
608.68	1689.57
608.88	1615.85
609.08	1699.81
609.28	1712.10
609.47	1722.34
609.67	1669.09
609.87	1689.57
610.06	1724.39
610.26	1708.01
610.46	1877.99
610.66	1654.76
610.85	1656.81
611.05	1763.30
611.25	1685.48
611.44	1669.09
611.64	1658.85
611.84	1675.24
612.03	1652.71
612.23	1722.34
612.43	1794.02
612.62	1714.15
612.82	1765.35
613.02	1720.29
613.21	1697.77
613.41	1734.63
613.61	1689.57
613.80	1744.87
614.00	1662.95
614.20	1779.68
614.39	1751.01
614.59	1755.11
614.79	1730.53
614.98	1648.61
615.18	1718.25
615.38	1738.73
615.57	1701.86
615.77	1867.75
615.97	1650.66
616.16	1705.96
616.36	1748.97
616.56	1748.97
616.75	1658.85
616.95	1691.62
617.15	1794.02
617.34	1677.29
617.54	1767.40
617.74	1855.46
617.93	1839.08
618.13	1626.09
618.32	1679.33
618.52	1738.73
618.72	1650.66
618.91	1804.26
619.11	1744.87
619.31	1740.77
619.50	1685.48
619.70	1728.49
619.90	1685.48
620.09	1703.91
620.29	1751.01
620.48	1873.89
620.68	1757.16
620.88	1722.34
621.07	1724.39
621.27	1697.77
621.46	1755.11
621.66	1765.35
621.86	1761.25
622.05	1656.81
622.25	1861.60
622.44	1677.29
622.64	1757.16
622.84	1746.92
623.03	1667.05
623.23	1691.62
623.42	1734.63
623.62	1755.11
623.82	1730.53
624.01	1734.63
624.21	1648.61
624.40	1834.98
624.60	1642.47
624.80	1687.53
624.99	1679.33
625.19	1669.09
625.38	1714.15
625.58	1697.77
625.77	1789.92
625.97	1777.64
626.17	1701.86
626.36	1669.09
626.56	1716.20
626.75	1609.70
626.95	1769.44
627.14	1718.25
627.34	1708.01
627.54	1767.40
627.73	1773.54
627.93	1757.16
628.12	1724.39
628.32	1740.77
628.51	1695.72
628.71	1769.44
628.90	1703.91
629.10	1683.43
629.30	1695.72
629.49	1802.21
629.69	1681.38
629.88	1681.38
630.08	1755.11
630.27	1826.79
630.47	1730.53
630.66	1695.72
630.86	1757.16
631.05	1691.62
631.25	1763.30
631.44	1769.44
631.64	1658.85
631.84	1630.18
632.03	1828.84
632.23	1689.57
632.42	1716.20
632.62	1603.56
632.81	1669.09
633.01	1728.49
633.20	1763.30
633.40	1873.89
633.59	1775.59
633.79	1630.18
633.98	1705.96
634.18	1765.35
634.37	1804.26
634.57	1693.67
634.76	1757.16
634.96	1781.73
635.15	1814.50
635.35	1736.68
635.54	1697.77
635.74	1777.64
635.93	1640.42
636.13	1667.05
636.32	1789.92
636.52	1777.64
636.71	1691.62
636.91	1693.67
637.10	1687.53
637.30	1718.25
637.49	1728.49
637.69	1716.20
637.88	1677.29
638.08	1634.28
638.27	1687.53
638.46	1779.68
638.66	1613.80
638.85	1681.38
639.05	1683.43
639.24	1820.64
639.44	1695.72
639.63	1695.72
639.83	1746.92
640.02	1759.21
640.22	1763.30
640.41	1638.38
640.61	1683.43
640.80	1714.15
640.99	1679.33
641.19	1753.06
641.38	1810.40
641.58	1740.77
641.77	1726.44
641.97	1648.61
642.16	1660.90
642.36	1701.86
642.55	1665.00
642.74	1781.73
642.94	1695.72
643.13	1642.47
643.33	1708.01
643.52	1722.34
643.72	1789.92
643.91	1650.66
644.10	1691.62
644.30	1662.95
644.49	1746.92
644.69	1732.58
644.88	1705.96
645.08	1804.26
645.27	1697.77
645.46	1650.66
645.66	1730.53
645.85	1755.11
646.05	1683.43
646.24	1658.85
646.43	1671.14
646.63	1742.82
646.82	1689.57
647.02	1775.59
647.21	1837.03
647.40	1617.90
647.60	1591.27
647.79	1753.06
647.99	1685.48
648.18	1675.24
648.37	1783.78
648.57	1705.96
648.76	1740.77
648.96	1671.14
649.15	1665.00
649.34	1832.93
649.54	1716.20
649.73	1685.48
649.92	1697.77
650.12	1763.30
650.31	1746.92
650.51	1978.34
650.70	1771.49
650.89	1628.14
651.09	1748.97
651.28	1716.20
651.47	1648.61
651.67	1796.07
651.86	1791.97
652.06	1609.70
652.25	1724.39
652.44	1531.88
652.64	1714.15
652.83	1748.97
653.02	1656.81
653.22	1740.77
653.41	1720.29
653.60	1679.33
653.80	1585.13
653.99	1763.30
654.18	1658.85
654.38	1665.00
654.57	1740.77
654.76	1710.05
654.96	1714.15
655.15	1617.90
655.34	1687.53
655.54	1611.75
655.73	1714.15
655.92	1632.23
656.12	1681.38
656.31	1802.21
656.50	1896.42
656.70	1732.58
656.89	1662.95
657.08	1644.52
657.28	1744.87
657.47	1697.77
657.66	1675.24
657.86	1703.91
658.05	1779.68
658.24	1755.11
658.43	1771.49
658.63	1564.65
658.82	1736.68
659.01	1746.92
659.21	1740.77
659.40	1638.38
659.59	1763.30
659.79	1703.91
659.98	1800.16
660.17	1736.68
660.36	1705.96
660.56	1734.63
660.75	1695.72
660.94	1695.72
661.14	1679.33
661.33	1689.57
661.52	1689.57
661.71	1751.01
661.91	1753.06
662.10	1783.78
662.29	1738.73
662.49	1617.90
662.68	1683.43
662.87	1652.71
663.06	1820.64
663.26	1642.47
663.45	1920.99
663.64	1695.72
663.83	1665.00
664.03	1802.21
664.22	1791.97
664.41	1785.83
664.60	1773.54
664.80	1564.65
664.99	1697.77
665.18	1759.21
665.37	1757.16
665.57	1794.02
665.76	1716.20
665.95	1714.15
666.14	1718.25
666.34	1605.61
666.53	1685.48
666.72	1578.98
666.91	1757.16
667.11	1654.76
667.30	1808.36
667.49	1701.86
667.68	1787.88
667.87	1730.53
668.07	1761.25
668.26	1568.74
668.45	1662.95
668.64	1705.96
668.84	1808.36
669.03	1675.24
669.22	1820.64
669.41	1746.92
669.60	1587.18
669.80	1794.02
669.99	1685.48
670.18	1687.53
670.37	1769.44
670.57	1808.36
670.76	1777.64
670.95	1798.12
671.14	1712.10
671.33	1679.33
671.53	1759.21
671.72	1771.49
671.91	1736.68
672.10	1660.90
672.29	1703.91
672.48	1634.28
672.68	1695.72
672.87	1695.72
673.06	1738.73
673.25	1806.31
673.44	1667.05
673.64	1665.00
673.83	1628.14
674.02	1632.23
674.21	1779.68
674.40	1728.49
674.59	1599.46
674.79	1652.71
674.98	1804.26
675.17	1791.97
675.36	1585.13
675.55	1687.53
675.74	1679.33
675.94	1869.80
676.13	1744.87
676.32	1810.40
676.51	1716.20
676.70	1587.18
676.89	1691.62
677.08	1708.01
677.28	1789.92
677.47	1658.85
677.66	1691.62
677.85	1673.19
678.04	1636.33
678.23	1789.92
678.42	1630.18
678.62	1667.05
678.81	1650.66
679.00	1716.20
679.19	1763.30
679.38	1699.81
679.57	1630.18
679.76	1644.52
679.96	1687.53
680.15	1767.40
680.34	1634.28
680.53	1699.81
680.72	1814.50
680.91	1673.19
681.10	1697.77
681.29	1634.28
681.48	1701.86
681.68	1751.01
681.87	1800.16
682.06	1777.64
682.25	1777.64
682.44	1630.18
682.63	1773.54
682.82	1560.55
683.01	1808.36
683.20	1642.47
683.39	1757.16
683.59	1705.96
683.78	1587.18
683.97	1724.39
684.16	1724.39
684.35	1568.74
684.54	1751.01
684.73	1646.57
684.92	1646.57
685.11	1796.07
685.30	1699.81
685.49	1712.10
685.69	1765.35
685.88	1675.24
686.07	1638.38
686.26	1730.53
686.45	1679.33
686.64	1730.53
686.83	1640.42
687.02	1730.53
687.21	1783.78
687.40	1710.05
687.59	1777.64
687.78	1683.43
687.97	1767.40
688.16	1689.57
688.35	1609.70
688.54	1685.48
688.74	1578.98
688.93	1695.72
689.12	1699.81
689.31	1757.16
689.50	1761.25
689.69	1599.46
689.88	1646.57
690.07	1718.25
690.26	1708.01
690.45	1599.46
690.64	1732.58
690.83	1638.38
691.02	1679.33
691.21	1681.38
691.40	1744.87
691.59	1701.86
691.78	1751.01
691.97	1611.75
692.16	1613.80
692.35	1748.97
692.54	1753.06
692.73	1613.80
692.92	1716.20
693.11	1693.67
693.30	1652.71
693.49	1714.15
693.68	1695.72
693.87	1806.31
694.06	1624.04
694.25	1613.80
694.44	1660.90
694.63	1708.01
694.82	1642.47
695.01	1628.14
695.20	1796.07
695.39	1689.57
695.58	1744.87
695.77	1648.61
695.96	1642.47
696.15	1642.47
696.34	1626.09
696.53	1632.23
696.72	1714.15
696.91	1673.19
697.10	1667.05
697.29	1634.28
697.48	1748.97
697.67	1783.78
697.86	1691.62
698.05	1679.33
698.24	1726.44
698.43	1662.95
698.62	1748.97
698.81	1632.23
699.00	1738.73
699.19	1726.44
699.38	1738.73
699.57	1660.90
699.76	1781.73
699.95	1679.33
700.14	1673.19
700.32	1642.47
700.51	1722.34
700.70	1675.24
700.89	1847.27
701.08	1834.98
701.27	1644.52
701.46	1834.98
701.65	1689.57
701.84	1687.53
702.03	1628.14
702.22	1767.40
702.41	1769.44
702.60	1806.31
702.79	1779.68
702.98	1650.66
703.17	1724.39
703.35	1710.05
703.54	1679.33
703.73	1654.76
703.92	1527.78
704.11	1658.85
704.30	1691.62
704.49	1763.30
704.68	1648.61
704.87	1740.77
705.06	1789.92
705.25	1619.94
705.43	1642.47
705.62	1722.34
705.81	1794.02
706.00	1681.38
706.19	1650.66
706.38	1667.05
706.57	1726.44
706.76	1636.33
706.95	1675.24
707.14	1769.44
707.32	1681.38
707.51	1640.42
707.70	1630.18
707.89	1662.95
708.08	1665.00
708.27	1699.81
708.46	1771.49
708.65	1581.03
708.84	1740.77
709.02	1695.72
709.21	1677.29
709.40	1769.44
709.59	1683.43
709.78	1679.33
709.97	1648.61
710.16	1748.97
710.34	1740.77
710.53	1689.57
710.72	1767.40
710.91	1677.29
711.10	1634.28
711.29	1689.57
711.48	1732.58
711.66	1722.34
711.85	1753.06
712.04	1716.20
712.23	1689.57
712.42	1767.40
712.61	1791.97
712.80	1646.57
712.98	1683.43
713.17	1697.77
713.36	1693.67
713.55	1802.21
713.74	1708.01
713.93	1732.58
714.11	1646.57
714.30	1540.07
714.49	1667.05
714.68	1665.00
714.87	1628.14
715.06	1828.84
715.24	1718.25
715.43	1730.53
715.62	1617.90
715.81	1691.62
716.00	1708.01
716.18	1615.85
716.37	1656.81
716.56	1720.29
716.75	1660.90
716.94	1667.05
717.12	1748.97
717.31	1609.70
717.50	1650.66
717.69	1697.77
717.88	1757.16
718.06	1685.48
718.25	1744.87
718.44	1667.05
718.63	1777.64
718.82	1603.56
719.00	1705.96
719.19	1818.60
719.38	1679.33
719.57	1761.25
719.76	1705.96
719.94	1718.25
720.13	1675.24
720.32	1777.64
720.51	1691.62
720.69	1675.24
720.88	1730.53
721.07	1728.49
721.26	1746.92
721.44	1716.20
721.63	1681.38
721.82	1669.09
722.01	1638.38
722.20	1654.76
722.38	1796.07
722.57	1585.13
722.76	1722.34
722.95	1613.80
723.13	1703.91
723.32	1710.05
723.51	1705.96
723.70	1738.73
723.88	1724.39
724.07	1628.14
724.26	1753.06
724.44	1654.76
724.63	1802.21
724.82	1667.05
725.01	1642.47
725.19	1644.52
725.38	1669.09
725.57	1691.62
725.76	1695.72
725.94	1662.95
726.13	1726.44
726.32	1695.72
726.51	1714.15
726.69	1601.51
726.88	1712.10
727.07	1781.73
727.25	1665.00
727.44	1714.15
727.63	1624.04
727.82	1638.38
728.00	1656.81
728.19	1673.19
728.38	1634.28
728.56	1585.13
728.75	1771.49
728.94	1730.53
729.12	1748.97
729.31	1695.72
729.50	1570.79
729.69	1722.34
729.87	1652.71
730.06	1658.85
730.25	1665.00
730.43	1738.73
730.62	1609.70
730.81	1632.23
730.99	1753.06
731.18	1701.86
731.37	1693.67
731.55	1685.48
731.74	1732.58
731.93	1712.10
732.11	1724.39
732.30	1701.86
732.49	1714.15
732.67	1605.61
732.86	1624.04
733.05	1613.80
733.23	1679.33
733.42	1587.18
733.61	1624.04
733.79	1777.64
733.98	1818.60
734.17	1687.53
734.35	1728.49
734.54	1783.78
734.73	1722.34
734.91	1626.09
735.10	1660.90
735.29	1669.09
735.47	1695.72
735.66	1634.28
735.84	1736.68
736.03	1656.81
736.22	1720.29
736.40	1646.57
736.59	1525.74
736.78	1626.09
736.96	1656.81
737.15	1767.40
737.33	1724.39
737.52	1697.77
737.71	1736.68
737.89	1705.96
738.08	1667.05
738.27	1730.53
738.45	1736.68
738.64	1675.24
738.82	1640.42
739.01	1714.15
739.20	1705.96
739.38	1796.07
739.57	1757.16
739.75	1708.01
739.94	1716.20
740.13	1583.08
740.31	1728.49
740.50	1748.97
740.68	1634.28
740.87	1640.42
741.06	1769.44
741.24	1722.34
741.43	1667.05
741.61	1720.29
741.80	1675.24
741.99	1732.58
742.17	1751.01
742.36	1638.38
742.54	1587.18
742.73	1722.34
742.91	1640.42
743.10	1708.01
743.29	1648.61
743.47	1689.57
743.66	1505.26
743.84	1640.42
744.03	1746.92
744.21	1665.00
744.40	1703.91
744.59	1679.33
744.77	1599.46
744.96	1734.63
745.14	1654.76
745.33	1638.38
745.51	1710.05
745.70	1628.14
745.88	1740.77
746.07	1683.43
746.26	1656.81
746.44	1638.38
746.63	1607.66
746.81	1697.77
747.00	1681.38
747.18	1656.81
747.37	1626.09
747.55	1716.20
747.74	2011.11
747.92	1665.00
748.11	1755.11
748.29	1619.94
748.48	1699.81
748.66	1646.57
748.85	1738.73
749.03	1746.92
749.22	1656.81
749.41	1654.76
749.59	1720.29
749.78	1654.76
749.96	1560.55
750.15	1679.33
750.33	1652.71
750.52	1632.23
750.70	1658.85
750.89	1712.10
751.07	1728.49
751.26	1773.54
751.44	1658.85
751.63	1675.24
751.81	1720.29
752.00	1585.13
752.18	1624.04
752.37	1708.01
752.55	1691.62
752.74	1568.74
752.92	1632.23
753.10	1716.20
753.29	1658.85
753.47	1701.86
753.66	1589.22
753.84	1646.57
754.03	1560.55
754.21	1681.38
754.40	1703.91
754.58	1785.83
754.77	1701.86
754.95	1689.57
755.14	1681.38
755.32	1701.86
755.51	1591.27
755.69	1701.86
755.88	1546.22
756.06	1712.10
756.24	1669.09
756.43	1673.19
756.61	1685.48
756.80	1583.08
756.98	1665.00
757.17	1642.47
757.35	1654.76
757.54	1654.76
757.72	1671.14
757.90	1644.52
758.09	1699.81
758.27	1605.61
758.46	1632.23
758.64	1705.96
758.83	1648.61
759.01	1769.44
759.19	1619.94
759.38	1677.29
759.56	1714.15
759.75	1658.85
759.93	1716.20
760.12	1677.29
760.30	1716.20
760.48	1681.38
760.67	1722.34
760.85	1667.05
761.04	1646.57
761.22	1605.61
761.40	1687.53
761.59	1691.62
761.77	1601.51
761.96	1593.32
762.14	1724.39
762.32	1720.29
762.51	1671.14
762.69	1675.24
762.88	1781.73
763.06	1613.80
763.24	1658.85
763.43	1632.23
763.61	1617.90
763.80	1705.96
763.98	1757.16
764.16	1576.94
764.35	1615.85
764.53	1615.85
764.72	1648.61
764.90	1665.00
765.08	1699.81
765.27	1796.07
765.45	1581.03
765.63	1650.66
765.82	1740.77
766.00	1683.43
766.18	1648.61
766.37	1632.23
766.55	1656.81
766.74	1621.99
766.92	1556.46
767.10	1609.70
767.29	1716.20
767.47	1621.99
767.65	1671.14
767.84	1705.96
768.02	1701.86
768.20	1742.82
768.39	1730.53
768.57	1619.94
768.75	1632.23
768.94	1712.10
769.12	1611.75
769.30	1675.24
769.49	1746.92
769.67	1607.66
769.85	1728.49
770.04	1613.80
770.22	1667.05
770.40	1726.44
770.59	1648.61
770.77	1699.81
770.95	1681.38
771.14	1712.10
771.32	1671.14
771.50	1603.56
771.69	1593.32
771.87	1636.33
772.05	1675.24
772.24	1628.14
772.42	1642.47
772.60	1621.99
772.78	1730.53
772.97	1521.64
773.15	1673.19
773.33	1744.87
773.52	1552.36
773.70	1654.76
773.88	1689.57
774.07	1572.84
774.25	1677.29
774.43	1730.53
774.61	1699.81
774.80	1648.61
774.98	1732.58
775.16	1572.84
775.34	1644.52
775.53	1753.06
775.71	1714.15
775.89	1753.06
776.08	1658.85
776.26	1597.42
776.44	1720.29
776.62	1644.52
776.81	1669.09
776.99	1701.86
777.17	1732.58
777.35	1654.76
777.54	1658.85
777.72	1613.80
777.90	1630.18
778.08	1673.19
778.27	1691.62
778.45	1601.51
778.63	1630.18
778.81	1716.20
779.00	1757.16
779.18	1634.28
779.36	1736.68
779.54	1613.80
779.73	1697.77
779.91	1677.29
780.09	1636.33
780.27	1662.95
780.46	1699.81
780.64	1679.33
780.82	1656.81
781.00	1675.24
781.19	1619.94
781.37	1685.48
781.55	1697.77
781.73	1646.57
781.91	1544.17
782.10	1701.86
782.28	1687.53
782.46	1662.95
782.64	1681.38
782.82	1779.68
783.01	1687.53
783.19	1728.49
783.37	1658.85
783.55	1679.33
783.74	1689.57
783.92	1658.85
784.10	1636.33
784.28	1695.72
784.46	1607.66
784.64	1648.61
784.83	1695.72
785.01	1777.64
785.19	1814.50
785.37	1685.48
785.55	1621.99
785.74	1671.14
785.92	1644.52
786.10	1646.57
786.28	1732.58
786.46	1714.15
786.64	1640.42
786.83	1630.18
787.01	1632.23
787.19	1839.08
787.37	1787.88
787.55	1693.67
787.74	1605.61
787.92	1638.38
788.10	1654.76
788.28	1591.27
788.46	1714.15
788.64	1689.57
788.82	1667.05
789.01	1546.22
789.19	1697.77
789.37	1665.00
789.55	1630.18
789.73	1634.28
789.91	1615.85
790.09	1624.04
790.28	1626.09
790.46	1644.52
790.64	1697.77
790.82	1644.52
791.00	1644.52
791.18	1734.63
791.36	1767.40
791.55	1660.90
791.73	1654.76
791.91	1617.90
792.09	1611.75
792.27	1613.80
792.45	1695.72
792.63	1728.49
792.81	1646.57
793.00	1687.53
793.18	1679.33
793.36	1738.73
793.54	1705.96
793.72	1687.53
793.90	1646.57
794.08	1574.89
794.26	1683.43
794.44	1542.12
794.62	1695.72
794.81	1585.13
794.99	1656.81
795.17	1763.30
795.35	1665.00
795.53	1673.19
795.71	1632.23
795.89	1605.61
796.07	1691.62
796.25	1697.77
796.43	1759.21
796.61	1665.00
796.80	1662.95
796.98	1683.43
797.16	1624.04
797.34	1630.18
797.52	1644.52
797.70	1724.39
797.88	1687.53
798.06	1576.94
798.24	1724.39
798.42	1642.47
798.60	1615.85
798.78	1591.27
798.96	1691.62
799.14	1611.75
799.32	1740.77
799.51	1695.72
799.69	1765.35
799.87	1703.91
800.05	1626.09
800.23	1587.18
800.41	1732.58
800.59	1572.84
800.77	1621.99
800.95	1642.47
801.13	1667.05
801.31	1744.87
801.49	1771.49
801.67	1662.95
801.85	1599.46
802.03	1675.24
802.21	1716.20
802.39	1587.18
802.57	1640.42
802.75	1736.68
802.93	1720.29
803.11	1634.28
803.29	1660.90
803.47	1673.19
803.65	1591.27
803.83	1667.05
804.01	1703.91
804.19	1619.94
804.37	1597.42
804.55	1652.71
804.73	1708.01
804.91	1591.27
805.09	1671.14
805.27	1712.10
805.45	1675.24
805.63	1638.38
805.81	1646.57
805.99	1701.86
806.17	1703.91
806.35	1691.62
806.53	1650.66
806.71	1699.81
806.89	1626.09
807.07	1775.59
807.25	1744.87
807.43	1585.13
807.61	1738.73
807.79	1708.01
807.97	1611.75
808.15	1675.24
808.33	1705.96
808.51	1720.29
808.69	1705.96
808.87	1621.99
809.05	1581.03
809.23	1691.62
809.41	1527.78
809.59	1570.79
809.77	1765.35
809.95	1685.48
810.13	1644.52
810.31	1638.38
810.49	1708.01
810.67	1730.53
810.84	1630.18
811.02	1724.39
811.20	1617.90
811.38	1703.91
811.56	1564.65
811.74	1722.34
811.92	1632.23
812.10	1740.77
812.28	1695.72
812.46	1689.57
812.64	1605.61
812.82	1574.89
813.00	1679.33
813.18	1658.85
813.36	1693.67
813.53	1617.90
813.71	1759.21
813.89	1689.57
814.07	1574.89
814.25	1624.04
814.43	1660.90
814.61	1632.23
814.79	1626.09
814.97	1695.72
815.15	1683.43
815.33	1556.46
815.50	1689.57
815.68	1597.42
815.86	1632.23
816.04	1697.77
816.22	1595.37
816.40	1716.20
816.58	1648.61
816.76	1574.89
816.94	1720.29
817.11	1624.04
817.29	1695.72
817.47	1591.27
817.65	1654.76
817.83	1632.23
818.01	1611.75
818.19	1519.59
818.37	1665.00
818.54	1712.10
818.72	1677.29
818.90	1697.77
819.08	1566.70
819.26	1685.48
819.44	1769.44
819.62	1675.24
819.80	1630.18
819.97	1624.04
820.15	1699.81
820.33	1507.30
820.51	1576.94
820.69	1693.67
820.87	1662.95
821.05	1683.43
821.22	1642.47
821.40	1701.86
821.58	1646.57
821.76	1613.80
821.94	1708.01
822.12	1650.66
822.29	1689.57
822.47	1617.90
822.65	1687.53
822.83	1609.70
823.01	1648.61
823.19	1658.85
823.36	1634.28
823.54	1626.09
823.72	1681.38
823.90	1671.14
824.08	1632.23
824.25	1621.99
824.43	1591.27
824.61	1691.62
824.79	1667.05
824.97	1562.60
825.15	1673.19
825.32	1628.14
825.50	1779.68
825.68	1667.05
825.86	1722.34
826.04	1644.52
826.21	1722.34
826.39	1671.14
826.57	1675.24
826.75	1730.53
826.93	1748.97
827.10	1660.90
827.28	1675.24
827.46	1667.05
827.64	1699.81
827.81	1652.71
827.99	1611.75
828.17	1662.95
828.35	1658.85
828.53	1675.24
828.70	1701.86
828.88	1556.46
829.06	1601.51
829.24	1724.39
829.41	1634.28
829.59	1726.44
829.77	1656.81
829.95	1724.39
830.12	1654.76
830.30	1656.81
830.48	1681.38
830.66	1687.53
830.84	1646.57
831.01	1689.57
831.19	1607.66
831.37	1701.86
831.55	1703.91
831.72	1710.05
831.90	1730.53
832.08	1708.01
832.25	1693.67
832.43	1675.24
832.61	1771.49
832.79	1572.84
832.96	1609.70
833.14	1734.63
833.32	1714.15
833.50	1648.61
833.67	1771.49
833.85	1587.18
834.03	1617.90
834.20	1697.77
834.38	1773.54
834.56	1714.15
834.74	1626.09
834.91	1599.46
835.09	1728.49
835.27	1648.61
835.44	1763.30
835.62	1640.42
835.80	1650.66
835.98	1632.23
836.15	1742.82
836.33	1660.90
836.51	1558.50
836.68	1611.75
836.86	1589.22
837.04	1665.00
837.21	1824.74
837.39	1681.38
837.57	1736.68
837.75	1677.29
837.92	1634.28
838.10	1556.46
838.28	1669.09
838.45	1640.42
838.63	1642.47
838.81	1781.73
838.98	1634.28
839.16	1617.90
839.34	1646.57
839.51	1724.39
839.69	1646.57
839.87	1601.51
840.04	1724.39
840.22	1884.13
840.40	1671.14
840.57	1665.00
840.75	1656.81
840.93	1542.12
841.10	1673.19
841.28	1673.19
841.46	1665.00
841.63	1757.16
841.81	1599.46
841.98	1630.18
842.16	1732.58
842.34	1603.56
842.51	1605.61
842.69	1644.52
842.87	1671.14
843.04	1652.71
843.22	1562.60
843.40	1554.41
843.57	1578.98
843.75	1605.61
843.92	1699.81
844.10	1630.18
844.28	1699.81
844.45	1570.79
844.63	1726.44
844.81	1626.09
844.98	1771.49
845.16	1621.99
845.33	1714.15
845.51	1660.90
845.69	1687.53
845.86	1728.49
846.04	1568.74
846.21	1587.18
846.39	1626.09
846.57	1595.37
846.74	1632.23
846.92	1652.71
847.09	1607.66
847.27	1687.53
847.45	1660.90
847.62	1611.75
847.80	1630.18
847.97	1683.43
848.15	1591.27
848.32	1593.32
848.50	1615.85
848.68	1626.09
848.85	1675.24
849.03	1550.31
849.20	1673.19
849.38	1640.42
849.56	1658.85
849.73	1558.50
849.91	1642.47
850.08	1650.66
850.26	1511.40
850.43	1599.46
850.61	1720.29
850.78	1581.03
850.96	1671.14
851.14	1589.22
851.31	1748.97
851.49	1628.14
851.66	1648.61
851.84	1609.70
852.01	1640.42
852.19	1640.42
852.36	1683.43
852.54	1658.85
852.71	1568.74
852.89	1673.19
853.07	1607.66
853.24	1638.38
853.42	1642.47
853.59	1671.14
853.77	1681.38
853.94	1732.58
854.12	1736.68
854.29	1527.78
854.47	1628.14
854.64	1771.49
854.82	1673.19
854.99	1787.88
855.17	1718.25
855.34	1665.00
855.52	1697.77
855.69	1740.77
855.87	1613.80
856.04	1638.38
856.22	1730.53
856.39	1669.09
856.57	1681.38
856.74	1619.94
856.92	1708.01
857.09	1607.66
857.27	1591.27
857.44	1699.81
857.62	1630.18
857.79	1611.75
857.97	1708.01
858.14	1628.14
858.32	1624.04
858.49	1683.43
858.67	1720.29
858.84	1603.56
859.02	1732.58
859.19	1687.53
859.37	1662.95
859.54	1677.29
859.72	1638.38
859.89	1621.99
860.06	1478.63
860.24	1630.18
860.41	1646.57
860.59	1574.89
860.76	1660.90
860.94	1617.90
861.11	1632.23
861.29	1648.61
861.46	1601.51
861.64	1628.14
861.81	1736.68
861.98	1599.46
862.16	1654.76
862.33	1574.89
862.51	1640.42
862.68	1636.33
862.86	1589.22
863.03	1642.47
863.21	1609.70
863.38	1628.14
863.55	1593.32
863.73	1744.87
863.90	1685.48
864.08	1646.57
864.25	1607.66
864.43	1705.96
864.60	1656.81
864.77	1640.42
864.95	1710.05
865.12	1634.28
865.30	1708.01
865.47	1726.44
865.64	1720.29
865.82	1656.81
865.99	1748.97
866.17	1679.33
866.34	1697.77
866.51	1511.40
866.69	1703.91
866.86	1808.36
867.04	1726.44
867.21	1669.09
867.38	1746.92
867.56	1650.66
867.73	1621.99
867.91	1652.71
868.08	1683.43
868.25	1583.08
868.43	1597.42
868.60	1708.01
868.78	1564.65
868.95	1701.86
869.12	1658.85
869.30	1597.42
869.47	1607.66
869.64	1621.99
869.82	1617.90
869.99	1667.05
870.16	1656.81
870.34	1656.81
870.51	1804.26
870.69	1499.11
870.86	1689.57
871.03	1611.75
871.21	1597.42
871.38	1732.58
871.55	1691.62
871.73	1585.13
871.90	1650.66
872.07	1621.99
872.25	1556.46
872.42	1570.79
872.59	1609.70
872.77	1609.70
872.94	1619.94
873.11	1589.22
873.29	1740.77
873.46	1560.55
873.63	1683.43
873.81	1574.89
873.98	1757.16
874.15	1617.90
874.33	1650.66
874.50	1658.85
874.67	1683.43
874.85	1603.56
875.02	1648.61
875.19	1550.31
875.37	1714.15
875.54	1568.74
875.71	1624.04
875.88	1626.09
876.06	1683.43
876.23	1660.90
876.40	1708.01
876.58	1662.95
876.75	1720.29
876.92	1574.89
877.10	1638.38
877.27	1648.61
877.44	1744.87
877.61	1607.66
877.79	1667.05
877.96	1699.81
878.13	1746.92
878.31	1636.33
878.48	1689.57
878.65	1755.11
878.82	1556.46
879.00	1605.61
879.17	1591.27
879.34	1583.08
879.51	1558.50
879.69	1638.38
879.86	1521.64
880.03	1597.42
880.21	1544.17
880.38	1634.28
880.55	1703.91
880.72	1667.05
880.90	1593.32
881.07	1558.50
881.24	1705.96
881.41	1597.42
881.59	1544.17
881.76	1695.72
881.93	1730.53
882.10	1628.14
882.28	1607.66
882.45	1689.57
882.62	1601.51
882.79	1646.57
882.96	1558.50
883.14	1667.05
883.31	1650.66
883.48	1544.17
883.65	1632.23
883.83	1599.46
884.00	1624.04
884.17	1679.33
884.34	1640.42
884.51	1720.29
884.69	1652.71
884.86	1585.13
885.03	1701.86
885.20	1626.09
885.38	1693.67
885.55	1613.80
885.72	1671.14
885.89	1601.51
886.06	1771.49
886.24	1601.51
886.41	1560.55
886.58	1656.81
886.75	1607.66
886.92	1634.28
887.10	1521.64
887.27	1609.70
887.44	1671.14
887.61	1789.92
887.78	1669.09
887.95	1683.43
888.13	1667.05
888.30	1593.32
888.47	1591.27
888.64	1699.81
888.81	1667.05
888.99	1568.74
889.16	1660.90
889.33	1683.43
889.50	1597.42
889.67	1650.66
889.84	1642.47
890.01	1738.73
890.19	1681.38
890.36	1648.61
890.53	1677.29
890.70	1695.72
890.87	1699.81
891.04	1603.56
891.22	1638.38
891.39	1583.08
891.56	1691.62
891.73	1708.01
891.90	1658.85
892.07	1513.45
892.24	1712.10
892.42	1617.90
892.59	1679.33
892.76	1746.92
892.93	1607.66
893.10	1689.57
893.27	1691.62
893.44	1535.98
893.61	1572.84
893.79	1671.14
893.96	1595.37
894.13	1632.23
894.30	1648.61
894.47	1695.72
894.64	1724.39
894.81	1617.90
894.98	1585.13
895.15	1693.67
895.33	1689.57
895.50	1609.70
895.67	1583.08
895.84	1615.85
896.01	1613.80
896.18	1589.22
896.35	1705.96
896.52	1671.14
896.69	1599.46
896.86	1607.66
897.04	1736.68
897.21	1589.22
897.38	1628.14
897.55	1566.70
897.72	1636.33
897.89	1689.57
898.06	1626.09
898.23	1564.65
898.40	1685.48
898.57	1662.95
898.74	1699.81
898.91	1607.66
899.08	1558.50
899.26	1673.19
899.43	1689.57
899.60	1617.90
899.77	1724.39
899.94	1613.80
900.11	1667.05
900.28	1568.74
900.45	1658.85
900.62	1656.81
900.79	1624.04
900.96	1605.61
901.13	1640.42
901.30	1601.51
901.47	1597.42
901.64	1624.04
901.81	1789.92
901.98	1581.03
902.15	1699.81
902.32	1529.83
902.49	1632.23
902.66	1710.05
902.83	1757.16
903.01	1634.28
903.18	1601.51
903.35	1562.60
903.52	1662.95
903.69	1638.38
903.86	1617.90
904.03	1673.19
904.20	1693.67
904.37	1646.57
904.54	1519.59
904.71	1716.20
904.88	1599.46
905.05	1564.65
905.22	1699.81
905.39	1482.73
905.56	1591.27
905.73	1603.56
905.90	1613.80
906.07	1538.02
906.24	1640.42
906.41	1636.33
906.58	1714.15
906.75	1558.50
906.92	1593.32
907.09	1699.81
907.26	1646.57
907.43	1572.84
907.60	1656.81
907.77	1679.33
907.93	1634.28
908.10	1572.84
908.27	1656.81
908.44	1603.56
908.61	1601.51
908.78	1597.42
908.95	1734.63
909.12	1732.58
909.29	1548.26
909.46	1615.85
909.63	1708.01
909.80	1667.05
909.97	1693.67
910.14	1617.90
910.31	1601.51
910.48	1708.01
910.65	1646.57
910.82	1574.89
910.99	1738.73
911.16	1642.47
911.33	1654.76
911.50	1683.43
911.66	1615.85
911.83	1624.04
912.00	1542.12
912.17	1519.59
912.34	1603.56
912.51	1660.90
912.68	1605.61
912.85	1632.23
913.02	1679.33
913.19	1605.61
913.36	1753.06
913.53	1748.97
913.70	1654.76
913.86	1740.77
914.03	1708.01
914.20	1599.46
914.37	1607.66
914.54	1689.57
914.71	1658.85
914.88	1679.33
915.05	1619.94
915.22	1640.42
915.39	1673.19
915.55	1552.36
915.72	1644.52
915.89	1544.17
916.06	1621.99
916.23	1640.42
916.40	1669.09
916.57	1646.57
916.74	1615.85
916.91	1630.18
917.07	1517.54
917.24	1607.66
917.41	1605.61
917.58	1714.15
917.75	1624.04
917.92	1603.56
918.09	1581.03
918.26	1609.70
918.42	1521.64
918.59	1693.67
918.76	1593.32
918.93	1626.09
919.10	1619.94
919.27	1603.56
919.44	1697.77
919.60	1648.61
919.77	1648.61
919.94	1634.28
920.11	1583.08
920.28	1716.20
920.45	1599.46
920.61	1507.30
920.78	1574.89
920.95	1697.77
921.12	1607.66
921.29	1583.08
921.46	1574.89
921.62	1552.36
921.79	1656.81
921.96	1578.98
922.13	1683.43
922.30	1630.18
922.47	1626.09
922.63	1669.09
922.80	1644.52
922.97	1593.32
923.14	1585.13
923.31	1650.66
923.47	1617.90
923.64	1724.39
923.81	1615.85
923.98	1716.20
924.15	1615.85
924.32	1708.01
924.48	1757.16
924.65	1701.86
924.82	1556.46
924.99	1669.09
925.15	1558.50
925.32	1716.20
925.49	1615.85
925.66	1605.61
925.83	1603.56
925.99	1648.61
926.16	1703.91
926.33	1636.33
926.50	1585.13
926.67	1611.75
926.83	1619.94
927.00	1669.09
927.17	1626.09
927.34	1597.42
927.50	1638.38
927.67	1761.25
927.84	1677.29
928.01	1652.71
928.17	1660.90
928.34	1619.94
928.51	1619.94
928.68	1619.94
928.84	1634.28
929.01	1576.94
929.18	1621.99
929.35	1626.09
929.51	1613.80
929.68	1591.27
929.85	1648.61
930.02	1632.23
930.18	1636.33
930.35	1716.20
930.52	1675.24
930.69	1619.94
930.85	1650.66
931.02	1595.37
931.19	1636.33
931.36	1650.66
931.52	1667.05
931.69	1746.92
931.86	1617.90
932.02	1613.80
932.19	1667.05
932.36	1720.29
932.53	1685.48
932.69	1681.38
932.86	1742.82
933.03	1560.55
933.19	1636.33
933.36	1638.38
933.53	1697.77
933.70	1607.66
933.86	1644.52
934.03	1705.96
934.20	1656.81
934.36	1767.40
934.53	1585.13
934.70	1597.42
934.86	1671.14
935.03	1609.70
935.20	1617.90
935.36	1671.14
935.53	1644.52
935.70	1558.50
935.86	1718.25
936.03	1597.42
936.20	1529.83
936.36	1660.90
936.53	1566.70
936.70	1599.46
936.86	1748.97
937.03	1673.19
937.20	1564.65
937.36	1705.96
937.53	1589.22
937.70	1624.04
937.86	1560.55
938.03	1603.56
938.20	1755.11
938.36	1695.72
938.53	1634.28
938.70	1523.69
938.86	1621.99
939.03	1646.57
939.20	1572.84
939.36	1611.75
939.53	1632.23
939.70	1830.88
939.86	1550.31
940.03	1619.94
940.19	1617.90
940.36	1705.96
940.53	1638.38
940.69	1650.66
940.86	1675.24
941.03	1603.56
941.19	1572.84
941.36	1673.19
941.52	1720.29
941.69	1691.62
941.86	1583.08
942.02	1599.46
942.19	1615.85
942.35	1591.27
942.52	1730.53
942.69	1630.18
942.85	1591.27
943.02	1609.70
943.18	1656.81
943.35	1601.51
943.52	1593.32
943.68	1611.75
943.85	1681.38
944.01	1642.47
944.18	1665.00
944.35	1716.20
944.51	1587.18
944.68	1497.07
944.84	1685.48
945.01	1585.13
945.17	1628.14
945.34	1716.20
945.51	1628.14
945.67	1738.73
945.84	1679.33
946.00	1603.56
946.17	1683.43
946.33	1619.94
946.50	1660.90
946.67	1710.05
946.83	1665.00
947.00	1675.24
947.16	1628.14
947.33	1673.19
947.49	1585.13
947.66	1511.40
947.82	1675.24
947.99	1583.08
948.16	1619.94
948.32	1619.94
948.49	1667.05
948.65	1691.62
948.82	1605.61
948.98	1677.29
949.15	1578.98
949.31	1667.05
949.48	1607.66
949.64	1548.26
949.81	1599.46
949.97	1540.07
950.14	1615.85
950.30	1556.46
950.47	1638.38
950.63	1675.24
950.80	1738.73
950.96	1626.09
951.13	1562.60
951.30	1638.38
951.46	1593.32
951.63	1730.53
951.79	1662.95
951.96	1691.62
952.12	1617.90
952.29	1624.04
952.45	1617.90
952.62	1560.55
952.78	1574.89
952.94	1640.42
953.11	1515.50
953.27	1462.25
953.44	1675.24
953.60	1613.80
953.77	1730.53
953.93	1599.46
954.10	1634.28
954.26	1652.71
954.43	1630.18
954.59	1697.77
954.76	1757.16
954.92	1644.52
955.09	1671.14
955.25	1638.38
955.42	1595.37
955.58	1708.01
955.75	1669.09
955.91	1548.26
956.07	1621.99
956.24	1746.92
956.40	1601.51
956.57	1642.47
956.73	1595.37
956.90	1728.49
957.06	1609.70
957.23	1560.55
957.39	1593.32
957.56	1662.95
957.72	1478.63
957.88	1595.37
958.05	1732.58
958.21	1716.20
958.38	1621.99
958.54	1677.29
958.71	1699.81
958.87	1583.08
959.03	1535.98
959.20	1671.14
959.36	1601.51
959.53	1587.18
959.69	1583.08
959.85	1667.05
960.02	1484.78
960.18	1550.31
960.35	1572.84
960.51	1736.68
960.68	1615.85
960.84	1665.00
961.00	1654.76
961.17	1632.23
961.33	1673.19
961.50	1634.28
961.66	1611.75
961.82	1656.81
961.99	1624.04
962.15	1630.18
962.31	1576.94
962.48	1665.00
962.64	1662.95
962.81	1615.85
962.97	1654.76
963.13	1581.03
963.30	1634.28
963.46	1667.05
963.62	1542.12
963.79	1656.81
963.95	1593.32
964.12	1597.42
964.28	1615.85
964.44	1515.50
964.61	1683.43
964.77	1669.09
964.93	1701.86
965.10	1624.04
965.26	1585.13
965.42	1613.80
965.59	1570.79
965.75	1624.04
965.92	1634.28
966.08	1656.81
966.24	1613.80
966.41	1617.90
966.57	1628.14
966.73	1650.66
966.90	1658.85
967.06	1611.75
967.22	1630.18
967.39	1697.77
967.55	1648.61
967.71	1679.33
967.88	1564.65
968.04	1558.50
968.20	1619.94
968.37	1605.61
968.53	1548.26
968.69	1669.09
968.85	1642.47
969.02	1650.66
969.18	1683.43
969.34	1636.33
969.51	1681.38
969.67	1746.92
969.83	1617.90
970.00	1691.62
970.16	1650.66
970.32	1578.98
970.48	1748.97
970.65	1593.32
970.81	1552.36
970.97	1587.18
971.14	1533.93
971.30	1722.34
971.46	1624.04
971.63	1593.32
971.79	1687.53
971.95	1665.00
972.11	1583.08
972.28	1566.70
972.44	1687.53
972.60	1581.03
972.76	1615.85
972.93	1570.79
973.09	1705.96
973.25	1654.76
973.42	1619.94
973.58	1667.05
973.74	1656.81
973.90	1751.01
974.07	1613.80
974.23	1617.90
974.39	1675.24
974.55	1650.66
974.72	1540.07
974.88	1566.70
975.04	1662.95
975.20	1548.26
975.37	1624.04
975.53	1587.18
975.69	1638.38
975.85	1601.51
976.01	1613.80
976.18	1564.65
976.34	1617.90
976.50	1720.29
976.66	1748.97
976.83	1683.43
976.99	1568.74
977.15	1570.79
977.31	1630.18
977.47	1662.95
977.64	1593.32
977.80	1634.28
977.96	1624.04
978.12	1617.90
978.29	1570.79
978.45	1646.57
978.61	1589.22
978.77	1708.01
978.93	1562.60
979.10	1576.94
979.26	1626.09
979.42	1675.24
979.58	1517.54
979.74	1540.07
979.91	1658.85
980.07	1583.08
980.23	1628.14
980.39	1542.12
980.55	1576.94
980.71	1564.65
980.88	1595.37
981.04	1628.14
981.20	1675.24
981.36	1687.53
981.52	1583.08
981.68	1529.83
981.85	1695.72
982.01	1644.52
982.17	1626.09
982.33	1572.84
982.49	1732.58
982.65	1626.09
982.82	1667.05
982.98	1658.85
983.14	1576.94
983.30	1683.43
983.46	1646.57
983.62	1671.14
983.79	1542.12
983.95	1511.40
984.11	1554.41
984.27	1587.18
984.43	1615.85
984.59	1548.26
984.75	1613.80
984.91	1599.46
985.08	1642.47
985.24	1568.74
985.40	1525.74
985.56	1624.04
985.72	1636.33
985.88	1730.53
986.04	1568.74
986.20	1552.36
986.37	1599.46
986.53	1646.57
986.69	1642.47
986.85	1595.37
987.01	1593.32
987.17	1652.71
987.33	1615.85
987.49	1576.94
987.65	1689.57
987.82	1679.33
987.98	1587.18
988.14	1634.28
988.30	1628.14
988.46	1634.28
988.62	1593.32
988.78	1552.36
988.94	1632.23
989.10	1593.32
989.26	1613.80
989.42	1699.81
989.59	1585.13
989.75	1605.61
989.91	1662.95
990.07	1554.41
990.23	1642.47
990.39	1642.47
990.55	1693.67
990.71	1607.66
990.87	1599.46
991.03	1722.34
991.19	1591.27
991.35	1527.78
991.51	1568.74
991.67	1691.62
991.83	1566.70
992.00	1603.56
992.16	1677.29
992.32	1544.17
992.48	1636.33
992.64	1564.65
992.80	1722.34
992.96	1695.72
993.12	1578.98
993.28	1621.99
993.44	1574.89
993.60	1593.32
993.76	1570.79
993.92	1611.75
994.08	1644.52
994.24	1630.18
994.40	1669.09
994.56	1695.72
994.72	1601.51
994.88	1576.94
995.04	1638.38
995.20	1560.55
995.36	1585.13
995.52	1634.28
995.68	1568.74
995.84	1542.12
996.00	1679.33
996.16	1546.22
996.32	1585.13
996.48	1599.46
996.64	1687.53
996.80	1619.94
996.96	1617.90
997.12	1621.99
997.28	1578.98
997.44	1581.03
997.60	1601.51
997.76	1550.31
997.92	1660.90
998.08	1699.81
998.24	1558.50
998.40	1587.18
998.56	1652.71
998.72	1521.64
998.88	1583.08
999.04	1607.66
999.20	1697.77
999.36	1548.26
999.52	1730.53
999.68	1601.51
999.84	1630.18
1000.00	1628.14
1000.16	1593.32
1000.32	1591.27
1000.48	1667.05
1000.64	1540.07
1000.80	1548.26
1000.95	1587.18
1001.11	1669.09
1001.27	1638.38
1001.43	1648.61
1001.59	1507.30
1001.75	1658.85
1001.91	1656.81
1002.07	1511.40
1002.23	1583.08
1002.39	1640.42
1002.55	1587.18
1002.71	1621.99
1002.87	1628.14
1003.03	1564.65
1003.19	1558.50
1003.34	1673.19
1003.50	1556.46
1003.66	1714.15
1003.82	1630.18
1003.98	1589.22
1004.14	1593.32
1004.30	1613.80
1004.46	1621.99
1004.62	1677.29
1004.78	1583.08
1004.94	1574.89
1005.09	1718.25
1005.25	1615.85
1005.41	1589.22
1005.57	1628.14
1005.73	1562.60
1005.89	1599.46
1006.05	1617.90
1006.21	1675.24
1006.37	1603.56
1006.52	1558.50
1006.68	1576.94
1006.84	1615.85
1007.00	1574.89
1007.16	1683.43
1007.32	1576.94
1007.48	1611.75
1007.64	1619.94
1007.79	1609.70
1007.95	1535.98
1008.11	1650.66
1008.27	1619.94
1008.43	1640.42
1008.59	1593.32
1008.75	1605.61
1008.91	1705.96
1009.06	1644.52
1009.22	1665.00
1009.38	1564.65
1009.54	1669.09
1009.70	1611.75
1009.86	1644.52
1010.01	1669.09
1010.17	1607.66
1010.33	1654.76
1010.49	1679.33
1010.65	1724.39
1010.81	1593.32
1010.96	1593.32
1011.12	1574.89
1011.28	1566.70
1011.44	1607.66
1011.60	1621.99
1011.76	1540.07
1011.91	1699.81
1012.07	1556.46
1012.23	1529.83
1012.39	1552.36
1012.55	1583.08
1012.71	1585.13
1012.86	1619.94
1013.02	1626.09
1013.18	1710.05
1013.34	1607.66
1013.50	1691.62
1013.65	1603.56
1013.81	1519.59
1013.97	1568.74
1014.13	1658.85
1014.29	1574.89
1014.44	1748.97
1014.60	1556.46
1014.76	1605.61
1014.92	1683.43
1015.07	1644.52
1015.23	1587.18
1015.39	1560.55
1015.55	1558.50
1015.71	1595.37
1015.86	1556.46
1016.02	1560.55
1016.18	1535.98
1016.34	1665.00
1016.49	1609.70
1016.65	1744.87
1016.81	1568.74
1016.97	1665.00
1017.12	1708.01
1017.28	1556.46
1017.44	1601.51
1017.60	1658.85
1017.75	1564.65
1017.91	1591.27
1018.07	1611.75
1018.23	1644.52
1018.38	1560.55
1018.54	1593.32
1018.70	1626.09
1018.86	1540.07
1019.01	1576.94
1019.17	1632.23
1019.33	1716.20
1019.49	1578.98
1019.64	1728.49
1019.80	1677.29
1019.96	1624.04
1020.12	1673.19
1020.27	1581.03
1020.43	1628.14
1020.59	1595.37
1020.74	1648.61
1020.90	1714.15
1021.06	1581.03
1021.22	1587.18
1021.37	1644.52
1021.53	1554.41
1021.69	1669.09
1021.84	1595.37
1022.00	1687.53
1022.16	1628.14
1022.31	1574.89
1022.47	1593.32
1022.63	1658.85
1022.79	1558.50
1022.94	1585.13
1023.10	1699.81
1023.26	1542.12
1023.41	1574.89
1023.57	1656.81
1023.73	1638.38
1023.88	1638.38
1024.04	1515.50
1024.20	1583.08
1024.35	1583.08
1024.51	1656.81
1024.67	1585.13
1024.82	1671.14
1024.98	1503.21
1025.14	1624.04
1025.29	1511.40
1025.45	1599.46
1025.61	1531.88
1025.76	1632.23
1025.92	1603.56
1026.08	1640.42
1026.23	1640.42
1026.39	1585.13
1026.55	1636.33
1026.70	1621.99
1026.86	1675.24
1027.02	1617.90
1027.17	1574.89
1027.33	1695.72
1027.48	1630.18
1027.64	1576.94
1027.80	1632.23
1027.95	1705.96
1028.11	1488.87
1028.27	1597.42
1028.42	1624.04
1028.58	1626.09
1028.73	1570.79
1028.89	1544.17
1029.05	1675.24
1029.20	1632.23
>>>>>End Processed Spectral Data<<<<<
