SpectraSuite Data File
++++++++++++++++++++++++++++++++++++
Date: Fri Jun 02 14:52:22 CEST 2017
User: INFO_000
Dark Spectrum Present: No
Reference Spectrum Present: No
Number of Sampled Component Spectra: 1
Spectrometers: USB4H00879
Integration Time (usec): 80000 (USB4H00879)
Spectra Averaged: 1 (USB4H00879)
Boxcar Smoothing: 0 (USB4H00879)
Correct for Electrical Dark: No (USB4H00879)
Strobe/Lamp Enabled: No (USB4H00879)
Correct for Detector Non-linearity: No (USB4H00879)
Correct for Stray Light: No (USB4H00879)
Number of Pixels in Processed Spectrum: 3648
>>>>>Begin Processed Spectral Data<<<<<
345.13	1290.22
345.34	1290.22
345.56	1290.22
345.78	1273.84
345.99	1282.03
346.21	1755.11
346.42	1697.77
346.64	1642.47
346.86	1789.92
347.07	1691.62
347.29	1744.87
347.50	1634.28
347.72	1660.90
347.94	1785.83
348.15	1509.35
348.37	1691.62
348.59	1640.42
348.80	1654.76
349.02	1673.19
349.23	1789.92
349.45	1726.44
349.67	1841.12
349.88	1640.42
350.10	1789.92
350.31	1767.40
350.53	1640.42
350.75	1757.16
350.96	1675.24
351.18	1689.57
351.39	1681.38
351.61	1621.99
351.82	1732.58
352.04	1730.53
352.26	1658.85
352.47	1665.00
352.69	1757.16
352.90	1613.80
353.12	1720.29
353.34	1640.42
353.55	1728.49
353.77	1773.54
353.98	1673.19
354.20	1716.20
354.41	1691.62
354.63	1826.79
354.85	1875.94
355.06	1695.72
355.28	1605.61
355.49	1673.19
355.71	1699.81
355.92	1699.81
356.14	1740.77
356.35	1732.58
356.57	1687.53
356.79	1785.83
357.00	1695.72
357.22	1736.68
357.43	1613.80
357.65	1751.01
357.86	1755.11
358.08	1712.10
358.29	1736.68
358.51	1701.86
358.72	1685.48
358.94	1708.01
359.16	1710.05
359.37	1712.10
359.59	1783.78
359.80	1806.31
360.02	1638.38
360.23	1757.16
360.45	1791.97
360.66	1615.85
360.88	1667.05
361.09	1722.34
361.31	1703.91
361.52	1693.67
361.74	1791.97
361.95	1808.36
362.17	1720.29
362.38	1828.84
362.60	1699.81
362.81	1701.86
363.03	1671.14
363.24	1632.23
363.46	1789.92
363.67	1814.50
363.89	1687.53
364.10	1667.05
364.32	1685.48
364.53	1806.31
364.75	1624.04
364.96	1742.82
365.18	1726.44
365.39	1642.47
365.61	1636.33
365.82	1775.59
366.04	1685.48
366.25	1595.37
366.47	1787.88
366.68	1718.25
366.90	1660.90
367.11	1720.29
367.33	1769.44
367.54	1775.59
367.76	1656.81
367.97	1705.96
368.19	1712.10
368.40	1765.35
368.62	1630.18
368.83	1617.90
369.05	1712.10
369.26	1667.05
369.48	1642.47
369.69	1701.86
369.91	1710.05
370.12	1662.95
370.33	1791.97
370.55	1720.29
370.76	1726.44
370.98	1732.58
371.19	1697.77
371.41	1679.33
371.62	1730.53
371.84	1636.33
372.05	1806.31
372.27	1753.06
372.48	1746.92
372.69	1777.64
372.91	1689.57
373.12	1691.62
373.34	1626.09
373.55	1726.44
373.77	1724.39
373.98	1667.05
374.20	1742.82
374.41	1816.55
374.62	1646.57
374.84	1728.49
375.05	1646.57
375.27	1705.96
375.48	1648.61
375.70	1796.07
375.91	1753.06
376.12	1794.02
376.34	1669.09
376.55	1658.85
376.77	1718.25
376.98	1662.95
377.19	1650.66
377.41	1683.43
377.62	1710.05
377.84	1806.31
378.05	1748.97
378.27	1687.53
378.48	1804.26
378.69	1906.66
378.91	1755.11
379.12	1683.43
379.34	1712.10
379.55	1740.77
379.76	1720.29
379.98	1744.87
380.19	1679.33
380.41	1630.18
380.62	1703.91
380.83	1646.57
381.05	1687.53
381.26	1779.68
381.47	1662.95
381.69	1658.85
381.90	1767.40
382.12	1740.77
382.33	1746.92
382.54	1626.09
382.76	1720.29
382.97	1755.11
383.19	1621.99
383.40	1665.00
383.61	1650.66
383.83	1642.47
384.04	1619.94
384.25	1675.24
384.47	1679.33
384.68	1722.34
384.89	1662.95
385.11	1630.18
385.32	1681.38
385.54	1679.33
385.75	1660.90
385.96	1753.06
386.18	1712.10
386.39	1714.15
386.60	1689.57
386.82	1728.49
387.03	1621.99
387.24	1716.20
387.46	1703.91
387.67	1748.97
387.88	1714.15
388.10	1660.90
388.31	1652.71
388.52	1771.49
388.74	1728.49
388.95	1689.57
389.16	1699.81
389.38	1609.70
389.59	1748.97
389.80	1787.88
390.02	1732.58
390.23	1753.06
390.44	1634.28
390.66	1703.91
390.87	1601.51
391.08	1734.63
391.30	1769.44
391.51	1798.12
391.72	1683.43
391.94	1708.01
392.15	1691.62
392.36	1695.72
392.58	1621.99
392.79	1724.39
393.00	1767.40
393.22	1771.49
393.43	1705.96
393.64	1734.63
393.85	1687.53
394.07	1654.76
394.28	1695.72
394.49	1687.53
394.71	1699.81
394.92	1802.21
395.13	1615.85
395.35	1636.33
395.56	1617.90
395.77	1771.49
395.98	1697.77
396.20	1824.74
396.41	1699.81
396.62	1693.67
396.84	1662.95
397.05	1730.53
397.26	1742.82
397.47	1724.39
397.69	1626.09
397.90	1877.99
398.11	1787.88
398.32	1675.24
398.54	1613.80
398.75	1699.81
398.96	1691.62
399.18	1785.83
399.39	1671.14
399.60	1691.62
399.81	1730.53
400.03	1589.22
400.24	2000.87
400.45	1671.14
400.66	1685.48
400.88	1632.23
401.09	1800.16
401.30	1679.33
401.51	1814.50
401.73	1681.38
401.94	1785.83
402.15	1665.00
402.36	1712.10
402.58	1742.82
402.79	1740.77
403.00	1662.95
403.21	1755.11
403.43	1761.25
403.64	1740.77
403.85	1689.57
404.06	1843.17
404.27	1601.51
404.49	1710.05
404.70	1683.43
404.91	1683.43
405.12	1705.96
405.34	1757.16
405.55	1806.31
405.76	1648.61
405.97	1646.57
406.19	1789.92
406.40	1626.09
406.61	1710.05
406.82	1712.10
407.03	1691.62
407.25	1667.05
407.46	1828.84
407.67	1722.34
407.88	1748.97
408.09	1669.09
408.31	1679.33
408.52	1673.19
408.73	1615.85
408.94	1642.47
409.15	1761.25
409.37	1699.81
409.58	1751.01
409.79	1726.44
410.00	1812.45
410.21	1687.53
410.43	1722.34
410.64	1753.06
410.85	1785.83
411.06	1724.39
411.27	1785.83
411.48	1820.64
411.70	1742.82
411.91	1646.57
412.12	1765.35
412.33	1748.97
412.54	1722.34
412.76	1748.97
412.97	1880.04
413.18	1681.38
413.39	1722.34
413.60	1673.19
413.81	1685.48
414.03	1617.90
414.24	1634.28
414.45	1800.16
414.66	1646.57
414.87	1720.29
415.08	1611.75
415.30	1712.10
415.51	1732.58
415.72	1683.43
415.93	1728.49
416.14	1794.02
416.35	1773.54
416.56	1701.86
416.78	1677.29
416.99	1687.53
417.20	1783.78
417.41	1748.97
417.62	1705.96
417.83	1748.97
418.04	1626.09
418.26	1654.76
418.47	1679.33
418.68	1724.39
418.89	1748.97
419.10	1785.83
419.31	1681.38
419.52	1755.11
419.73	1671.14
419.95	1769.44
420.16	1687.53
420.37	1685.48
420.58	1757.16
420.79	1558.50
421.00	1593.32
421.21	1722.34
421.42	1644.52
421.63	1769.44
421.85	1648.61
422.06	1599.46
422.27	1615.85
422.48	1671.14
422.69	1671.14
422.90	1601.51
423.11	1628.14
423.32	1779.68
423.53	1740.77
423.75	1669.09
423.96	1751.01
424.17	1777.64
424.38	1771.49
424.59	1646.57
424.80	1671.14
425.01	1744.87
425.22	1564.65
425.43	1732.58
425.64	1710.05
425.85	1716.20
426.06	1779.68
426.28	1720.29
426.49	1624.04
426.70	1611.75
426.91	1722.34
427.12	1761.25
427.33	1636.33
427.54	1695.72
427.75	1722.34
427.96	1757.16
428.17	1781.73
428.38	1669.09
428.59	1810.40
428.80	1685.48
429.01	1697.77
429.23	1669.09
429.44	1609.70
429.65	1771.49
429.86	1712.10
430.07	1716.20
430.28	1648.61
430.49	1728.49
430.70	1734.63
430.91	1845.22
431.12	1642.47
431.33	1712.10
431.54	1839.08
431.75	1681.38
431.96	1710.05
432.17	1757.16
432.38	1732.58
432.59	1804.26
432.80	1830.88
433.01	1716.20
433.22	1646.57
433.43	1705.96
433.64	1714.15
433.85	1759.21
434.06	1648.61
434.27	1621.99
434.49	1671.14
434.70	1675.24
434.91	1759.21
435.12	1640.42
435.33	1757.16
435.54	1695.72
435.75	1630.18
435.96	1656.81
436.17	1654.76
436.38	1705.96
436.59	1710.05
436.80	1685.48
437.01	1802.21
437.22	1781.73
437.43	1650.66
437.64	1617.90
437.85	1679.33
438.06	1791.97
438.27	1681.38
438.48	1689.57
438.69	1724.39
438.90	1656.81
439.11	1679.33
439.32	1828.84
439.53	1648.61
439.74	1662.95
439.95	1669.09
440.16	1650.66
440.37	1687.53
440.57	1632.23
440.78	1685.48
440.99	1712.10
441.20	1697.77
441.41	1554.41
441.62	1621.99
441.83	1677.29
442.04	1589.22
442.25	1728.49
442.46	1613.80
442.67	1626.09
442.88	1892.32
443.09	1724.39
443.30	1675.24
443.51	1675.24
443.72	1789.92
443.93	1689.57
444.14	1753.06
444.35	1699.81
444.56	1718.25
444.77	1646.57
444.98	1716.20
445.19	1675.24
445.40	1675.24
445.61	1568.74
445.81	1675.24
446.02	1785.83
446.23	1683.43
446.44	1599.46
446.65	1654.76
446.86	1742.82
447.07	1802.21
447.28	1703.91
447.49	1755.11
447.70	1679.33
447.91	1710.05
448.12	1693.67
448.33	1726.44
448.54	1595.37
448.74	1652.71
448.95	1624.04
449.16	1701.86
449.37	1708.01
449.58	1695.72
449.79	1710.05
450.00	1740.77
450.21	1712.10
450.42	1732.58
450.63	1650.66
450.84	1621.99
451.05	1771.49
451.25	1646.57
451.46	1708.01
451.67	1796.07
451.88	1732.58
452.09	1753.06
452.30	1626.09
452.51	1716.20
452.72	1724.39
452.93	1828.84
453.13	1644.52
453.34	1710.05
453.55	1656.81
453.76	1683.43
453.97	1570.79
454.18	1648.61
454.39	1740.77
454.60	1708.01
454.81	1763.30
455.01	1699.81
455.22	1597.42
455.43	1718.25
455.64	1691.62
455.85	1677.29
456.06	1763.30
456.27	1765.35
456.48	1589.22
456.68	1718.25
456.89	1708.01
457.10	1662.95
457.31	1687.53
457.52	1746.92
457.73	1705.96
457.94	1734.63
458.14	1562.60
458.35	1759.21
458.56	1644.52
458.77	1732.58
458.98	1630.18
459.19	1710.05
459.39	1708.01
459.60	1724.39
459.81	1640.42
460.02	1632.23
460.23	1656.81
460.44	1646.57
460.65	1646.57
460.85	1638.38
461.06	1595.37
461.27	1705.96
461.48	1621.99
461.69	1624.04
461.89	1609.70
462.10	1687.53
462.31	1642.47
462.52	1646.57
462.73	1667.05
462.94	1685.48
463.14	1679.33
463.35	1683.43
463.56	1814.50
463.77	1710.05
463.98	1638.38
464.18	1665.00
464.39	1638.38
464.60	1773.54
464.81	1585.13
465.02	1716.20
465.23	1691.62
465.43	1744.87
465.64	1675.24
465.85	1642.47
466.06	1689.57
466.27	1689.57
466.47	1693.67
466.68	1812.45
466.89	1619.94
467.10	1574.89
467.30	1716.20
467.51	1714.15
467.72	1658.85
467.93	1605.61
468.14	1761.25
468.34	1722.34
468.55	1658.85
468.76	1796.07
468.97	1710.05
469.17	1822.69
469.38	1849.32
469.59	1724.39
469.80	1798.12
470.01	1697.77
470.21	1601.51
470.42	1716.20
470.63	1730.53
470.84	1888.23
471.04	1708.01
471.25	1839.08
471.46	1742.82
471.67	1775.59
471.87	1607.66
472.08	1648.61
472.29	1714.15
472.50	1751.01
472.70	1716.20
472.91	1564.65
473.12	1589.22
473.33	1650.66
473.53	1691.62
473.74	1609.70
473.95	1716.20
474.16	1589.22
474.36	1736.68
474.57	1736.68
474.78	1683.43
474.99	1845.22
475.19	1703.91
475.40	1667.05
475.61	1714.15
475.81	1748.97
476.02	1642.47
476.23	1716.20
476.44	1675.24
476.64	1648.61
476.85	1673.19
477.06	1644.52
477.27	1679.33
477.47	1808.36
477.68	1679.33
477.89	1685.48
478.09	1781.73
478.30	1691.62
478.51	1652.71
478.71	1671.14
478.92	1695.72
479.13	1691.62
479.34	1654.76
479.54	1789.92
479.75	1640.42
479.96	1748.97
480.16	1683.43
480.37	1638.38
480.58	1732.58
480.78	1806.31
480.99	1607.66
481.20	1673.19
481.41	1755.11
481.61	1726.44
481.82	1816.55
482.03	1667.05
482.23	1703.91
482.44	1720.29
482.65	1828.84
482.85	1794.02
483.06	1712.10
483.27	1701.86
483.47	1771.49
483.68	1679.33
483.89	1595.37
484.09	1798.12
484.30	1738.73
484.51	1814.50
484.71	1589.22
484.92	1624.04
485.13	1697.77
485.33	1744.87
485.54	1669.09
485.75	1738.73
485.95	1757.16
486.16	1726.44
486.37	1708.01
486.57	1593.32
486.78	1712.10
486.98	1665.00
487.19	1648.61
487.40	1816.55
487.60	1722.34
487.81	1605.61
488.02	1611.75
488.22	1699.81
488.43	1773.54
488.64	1619.94
488.84	1617.90
489.05	1781.73
489.25	1712.10
489.46	1738.73
489.67	1636.33
489.87	1718.25
490.08	1767.40
490.29	1628.14
490.49	1773.54
490.70	1765.35
490.90	1699.81
491.11	1695.72
491.32	1699.81
491.52	1630.18
491.73	1726.44
491.94	1730.53
492.14	1724.39
492.35	1646.57
492.55	1767.40
492.76	1621.99
492.97	1609.70
493.17	1705.96
493.38	1826.79
493.58	1781.73
493.79	1738.73
494.00	1687.53
494.20	1605.61
494.41	1732.58
494.61	1753.06
494.82	1708.01
495.02	1621.99
495.23	1748.97
495.44	1689.57
495.64	1751.01
495.85	1634.28
496.05	1732.58
496.26	1720.29
496.47	1628.14
496.67	1699.81
496.88	1798.12
497.08	1677.29
497.29	1693.67
497.49	1822.69
497.70	1675.24
497.91	1638.38
498.11	1810.40
498.32	1615.85
498.52	1761.25
498.73	1691.62
498.93	1785.83
499.14	1771.49
499.34	1753.06
499.55	1748.97
499.76	1644.52
499.96	1744.87
500.17	1632.23
500.37	1748.97
500.58	1710.05
500.78	1718.25
500.99	1648.61
501.19	1642.47
501.40	1757.16
501.60	1566.70
501.81	1671.14
502.02	1710.05
502.22	1722.34
502.43	1732.58
502.63	1861.60
502.84	1765.35
503.04	1775.59
503.25	1656.81
503.45	1685.48
503.66	1601.51
503.86	1687.53
504.07	1773.54
504.27	1624.04
504.48	1677.29
504.68	1646.57
504.89	1777.64
505.09	1642.47
505.30	1681.38
505.50	1654.76
505.71	1695.72
505.91	1699.81
506.12	1703.91
506.32	1730.53
506.53	1576.94
506.73	1716.20
506.94	1687.53
507.14	1683.43
507.35	1730.53
507.55	1560.55
507.76	1718.25
507.96	1654.76
508.17	1763.30
508.37	1630.18
508.58	1751.01
508.78	1742.82
508.99	1841.12
509.19	1785.83
509.40	1677.29
509.60	1585.13
509.81	1738.73
510.01	1699.81
510.22	1689.57
510.42	1779.68
510.63	1759.21
510.83	1669.09
511.04	1703.91
511.24	1708.01
511.44	1718.25
511.65	1681.38
511.85	1734.63
512.06	1761.25
512.26	1718.25
512.47	1773.54
512.67	1642.47
512.88	1773.54
513.08	1687.53
513.29	1742.82
513.49	1626.09
513.69	1742.82
513.90	1642.47
514.10	1816.55
514.31	1687.53
514.51	1712.10
514.72	1767.40
514.92	1748.97
515.13	1802.21
515.33	1634.28
515.53	1644.52
515.74	1705.96
515.94	1654.76
516.15	1783.78
516.35	1638.38
516.56	1599.46
516.76	1654.76
516.96	1624.04
517.17	1730.53
517.37	1705.96
517.58	1597.42
517.78	1673.19
517.99	1712.10
518.19	1855.46
518.39	1810.40
518.60	1806.31
518.80	1583.08
519.01	1757.16
519.21	1716.20
519.41	1751.01
519.62	1626.09
519.82	1765.35
520.03	1763.30
520.23	1730.53
520.43	1634.28
520.64	1751.01
520.84	1863.65
521.05	1650.66
521.25	1716.20
521.45	1703.91
521.66	1691.62
521.86	1712.10
522.07	1705.96
522.27	1693.67
522.47	1660.90
522.68	1683.43
522.88	1667.05
523.08	1806.31
523.29	1660.90
523.49	1679.33
523.70	1634.28
523.90	1679.33
524.10	1673.19
524.31	1673.19
524.51	1624.04
524.71	1789.92
524.92	1732.58
525.12	1605.61
525.33	1650.66
525.53	1759.21
525.73	1746.92
525.94	1591.27
526.14	1630.18
526.34	1740.77
526.55	1673.19
526.75	1691.62
526.95	1757.16
527.16	1650.66
527.36	1697.77
527.56	1730.53
527.77	1640.42
527.97	1705.96
528.17	1753.06
528.38	1722.34
528.58	1722.34
528.78	1673.19
528.99	1658.85
529.19	1718.25
529.39	1634.28
529.60	1605.61
529.80	1677.29
530.00	1652.71
530.21	1689.57
530.41	1769.44
530.61	1722.34
530.82	1689.57
531.02	1722.34
531.22	1716.20
531.43	1648.61
531.63	1708.01
531.83	1757.16
532.04	1714.15
532.24	1697.77
532.44	1740.77
532.64	1730.53
532.85	1681.38
533.05	1636.33
533.25	1621.99
533.46	1763.30
533.66	1769.44
533.86	1585.13
534.07	1763.30
534.27	1687.53
534.47	1753.06
534.67	1679.33
534.88	1658.85
535.08	1751.01
535.28	1761.25
535.49	1585.13
535.69	1736.68
535.89	1732.58
536.09	1648.61
536.30	1695.72
536.50	1669.09
536.70	1794.02
536.91	1720.29
537.11	1693.67
537.31	1681.38
537.51	1699.81
537.72	1732.58
537.92	1775.59
538.12	1755.11
538.32	1722.34
538.53	1712.10
538.73	1656.81
538.93	1673.19
539.13	1662.95
539.34	1732.58
539.54	1550.31
539.74	1753.06
539.94	1685.48
540.15	1769.44
540.35	1742.82
540.55	1617.90
540.75	1597.42
540.96	1683.43
541.16	1677.29
541.36	1617.90
541.56	1710.05
541.77	1816.55
541.97	1722.34
542.17	1632.23
542.37	1828.84
542.58	1712.10
542.78	1662.95
542.98	1681.38
543.18	1646.57
543.38	1728.49
543.59	1662.95
543.79	1671.14
543.99	1705.96
544.19	1656.81
544.40	1718.25
544.60	1626.09
544.80	1685.48
545.00	1642.47
545.20	1703.91
545.41	1613.80
545.61	1679.33
545.81	1689.57
546.01	1665.00
546.21	1693.67
546.42	1734.63
546.62	1763.30
546.82	1617.90
547.02	1705.96
547.22	1683.43
547.43	1783.78
547.63	1716.20
547.83	1617.90
548.03	1634.28
548.23	1728.49
548.44	1656.81
548.64	1693.67
548.84	1757.16
549.04	1638.38
549.24	1794.02
549.45	1830.88
549.65	1722.34
549.85	1724.39
550.05	1753.06
550.25	1585.13
550.45	1814.50
550.66	1716.20
550.86	1656.81
551.06	1621.99
551.26	1646.57
551.46	1691.62
551.66	1650.66
551.87	1773.54
552.07	1720.29
552.27	1646.57
552.47	1687.53
552.67	1642.47
552.87	1722.34
553.07	1644.52
553.28	1730.53
553.48	1708.01
553.68	1658.85
553.88	1751.01
554.08	1654.76
554.28	1630.18
554.48	1675.24
554.69	1681.38
554.89	1798.12
555.09	1615.85
555.29	1626.09
555.49	1685.48
555.69	1701.86
555.89	1738.73
556.10	1654.76
556.30	1609.70
556.50	1705.96
556.70	1695.72
556.90	1677.29
557.10	1712.10
557.30	1708.01
557.50	1621.99
557.70	1613.80
557.91	1669.09
558.11	1669.09
558.31	1705.96
558.51	1746.92
558.71	1671.14
558.91	1742.82
559.11	1687.53
559.31	1585.13
559.51	1636.33
559.72	1705.96
559.92	1716.20
560.12	1660.90
560.32	1705.96
560.52	1761.25
560.72	1675.24
560.92	1753.06
561.12	1703.91
561.32	1736.68
561.52	1708.01
561.72	1820.64
561.93	1746.92
562.13	1701.86
562.33	1656.81
562.53	1732.58
562.73	1705.96
562.93	1669.09
563.13	1751.01
563.33	1740.77
563.53	1789.92
563.73	1734.63
563.93	1863.65
564.13	1728.49
564.33	1730.53
564.53	1724.39
564.74	1671.14
564.94	1748.97
565.14	1697.77
565.34	1757.16
565.54	1679.33
565.74	1636.33
565.94	1667.05
566.14	1673.19
566.34	1728.49
566.54	1679.33
566.74	1740.77
566.94	1736.68
567.14	1673.19
567.34	1716.20
567.54	1699.81
567.74	1673.19
567.94	1671.14
568.14	1640.42
568.34	1820.64
568.54	1720.29
568.74	1699.81
568.94	1701.86
569.14	1771.49
569.34	1705.96
569.54	1609.70
569.75	1679.33
569.95	1763.30
570.15	1773.54
570.35	1644.52
570.55	1636.33
570.75	1738.73
570.95	1701.86
571.15	1753.06
571.35	1732.58
571.55	1654.76
571.75	1683.43
571.95	1650.66
572.15	1662.95
572.35	1693.67
572.55	1714.15
572.75	1689.57
572.95	1675.24
573.15	1652.71
573.35	1728.49
573.55	1714.15
573.75	1710.05
573.95	1884.13
574.15	1712.10
574.35	1646.57
574.55	1613.80
574.75	1673.19
574.95	1699.81
575.15	1695.72
575.34	1703.91
575.54	1732.58
575.74	1619.94
575.94	1722.34
576.14	1667.05
576.34	1662.95
576.54	1667.05
576.74	1738.73
576.94	1595.37
577.14	1689.57
577.34	1722.34
577.54	1644.52
577.74	1697.77
577.94	1695.72
578.14	1652.71
578.34	1740.77
578.54	1673.19
578.74	1726.44
578.94	1699.81
579.14	1712.10
579.34	1607.66
579.54	1722.34
579.74	1667.05
579.94	1699.81
580.13	1798.12
580.33	1640.42
580.53	1662.95
580.73	1667.05
580.93	1681.38
581.13	1648.61
581.33	1732.58
581.53	1601.51
581.73	1691.62
581.93	1665.00
582.13	1773.54
582.33	1691.62
582.53	1607.66
582.73	1744.87
582.92	1648.61
583.12	1734.63
583.32	1581.03
583.52	1660.90
583.72	1765.35
583.92	1703.91
584.12	1685.48
584.32	1712.10
584.52	1581.03
584.72	1640.42
584.92	1695.72
585.11	1730.53
585.31	1742.82
585.51	1630.18
585.71	1753.06
585.91	1757.16
586.11	1732.58
586.31	1722.34
586.51	1675.24
586.71	1710.05
586.91	1755.11
587.10	1755.11
587.30	1751.01
587.50	1746.92
587.70	1581.03
587.90	1718.25
588.10	1611.75
588.30	1708.01
588.50	1646.57
588.69	1642.47
588.89	1650.66
589.09	1716.20
589.29	1671.14
589.49	1683.43
589.69	1714.15
589.89	1665.00
590.08	1673.19
590.28	1726.44
590.48	1783.78
590.68	1685.48
590.88	1722.34
591.08	1722.34
591.28	1677.29
591.47	1701.86
591.67	1585.13
591.87	1701.86
592.07	1828.84
592.27	1556.46
592.47	1613.80
592.67	1861.60
592.86	1679.33
593.06	1689.57
593.26	1712.10
593.46	1722.34
593.66	1550.31
593.86	1695.72
594.05	1773.54
594.25	1607.66
594.45	1636.33
594.65	1800.16
594.85	1718.25
595.05	1679.33
595.24	1644.52
595.44	1708.01
595.64	1601.51
595.84	1718.25
596.04	1697.77
596.23	1599.46
596.43	1734.63
596.63	1738.73
596.83	1650.66
597.03	1789.92
597.22	1671.14
597.42	1716.20
597.62	1652.71
597.82	1748.97
598.02	1716.20
598.21	1685.48
598.41	1724.39
598.61	1703.91
598.81	1703.91
599.01	1699.81
599.20	1689.57
599.40	1609.70
599.60	1665.00
599.80	1677.29
600.00	1834.98
600.19	1757.16
600.39	1597.42
600.59	1679.33
600.79	1781.73
600.98	1671.14
601.18	1732.58
601.38	1753.06
601.58	1621.99
601.78	1755.11
601.97	1742.82
602.17	1740.77
602.37	1599.46
602.57	1697.77
602.76	1738.73
602.96	1638.38
603.16	1681.38
603.36	1708.01
603.55	1687.53
603.75	1656.81
603.95	1708.01
604.15	1740.77
604.34	1746.92
604.54	1734.63
604.74	1677.29
604.94	1640.42
605.13	1691.62
605.33	1640.42
605.53	1599.46
605.73	1724.39
605.92	1675.24
606.12	1681.38
606.32	1716.20
606.52	1773.54
606.71	1751.01
606.91	1646.57
607.11	1632.23
607.30	1724.39
607.50	1716.20
607.70	1810.40
607.90	1617.90
608.09	1613.80
608.29	1714.15
608.49	1767.40
608.68	1550.31
608.88	1667.05
609.08	1763.30
609.28	1695.72
609.47	1646.57
609.67	1767.40
609.87	1691.62
610.06	1748.97
610.26	1738.73
610.46	1777.64
610.66	1720.29
610.85	1599.46
611.05	1699.81
611.25	1703.91
611.44	1785.83
611.64	1740.77
611.84	1687.53
612.03	1681.38
612.23	1763.30
612.43	1718.25
612.62	1671.14
612.82	1697.77
613.02	1753.06
613.21	1763.30
613.41	1605.61
613.61	1634.28
613.80	1712.10
614.00	1687.53
614.20	1738.73
614.39	1767.40
614.59	1785.83
614.79	1624.04
614.98	1689.57
615.18	1675.24
615.38	1701.86
615.57	1716.20
615.77	1880.04
615.97	1755.11
616.16	1642.47
616.36	1726.44
616.56	1730.53
616.75	1748.97
616.95	1654.76
617.15	1751.01
617.34	1710.05
617.54	1791.97
617.74	1789.92
617.93	1769.44
618.13	1695.72
618.32	1669.09
618.52	1742.82
618.72	1611.75
618.91	1697.77
619.11	1765.35
619.31	1724.39
619.50	1628.14
619.70	1675.24
619.90	1685.48
620.09	1705.96
620.29	1648.61
620.48	1861.60
620.68	1683.43
620.88	1720.29
621.07	1767.40
621.27	1730.53
621.46	1705.96
621.66	1732.58
621.86	1673.19
622.05	1732.58
622.25	1798.12
622.44	1671.14
622.64	1671.14
622.84	1662.95
623.03	1728.49
623.23	1687.53
623.42	1697.77
623.62	1849.32
623.82	1716.20
624.01	1738.73
624.21	1705.96
624.40	1765.35
624.60	1652.71
624.80	1708.01
624.99	1712.10
625.19	1695.72
625.38	1732.58
625.58	1675.24
625.77	1718.25
625.97	1738.73
626.17	1660.90
626.36	1613.80
626.56	1722.34
626.75	1591.27
626.95	1599.46
627.14	1714.15
627.34	1626.09
627.54	1783.78
627.73	1771.49
627.93	1740.77
628.12	1634.28
628.32	1755.11
628.51	1677.29
628.71	1814.50
628.90	1755.11
629.10	1728.49
629.30	1708.01
629.49	1691.62
629.69	1638.38
629.88	1677.29
630.08	1812.45
630.27	1920.99
630.47	1730.53
630.66	1599.46
630.86	1759.21
631.05	1685.48
631.25	1718.25
631.44	1771.49
631.64	1654.76
631.84	1656.81
632.03	1763.30
632.23	1669.09
632.42	1699.81
632.62	1699.81
632.81	1720.29
633.01	1673.19
633.20	1798.12
633.40	1839.08
633.59	1691.62
633.79	1650.66
633.98	1777.64
634.18	1779.68
634.37	1787.88
634.57	1654.76
634.76	1732.58
634.96	1834.98
635.15	1847.27
635.35	1734.63
635.54	1736.68
635.74	1730.53
635.93	1574.89
636.13	1708.01
636.32	1744.87
636.52	1773.54
636.71	1681.38
636.91	1638.38
637.10	1767.40
637.30	1667.05
637.49	1673.19
637.69	1675.24
637.88	1701.86
638.08	1589.22
638.27	1748.97
638.46	1650.66
638.66	1642.47
638.85	1648.61
639.05	1699.81
639.24	1847.27
639.44	1779.68
639.63	1746.92
639.83	1771.49
640.02	1757.16
640.22	1716.20
640.41	1716.20
640.61	1699.81
640.80	1738.73
640.99	1607.66
641.19	1787.88
641.38	1794.02
641.58	1720.29
641.77	1689.57
641.97	1638.38
642.16	1705.96
642.36	1646.57
642.55	1605.61
642.74	1728.49
642.94	1724.39
643.13	1699.81
643.33	1744.87
643.52	1746.92
643.72	1728.49
643.91	1638.38
644.10	1781.73
644.30	1730.53
644.49	1720.29
644.69	1763.30
644.88	1691.62
645.08	1687.53
645.27	1650.66
645.46	1656.81
645.66	1679.33
645.85	1738.73
646.05	1720.29
646.24	1540.07
646.43	1640.42
646.63	1730.53
646.82	1621.99
647.02	1695.72
647.21	1830.88
647.40	1738.73
647.60	1650.66
647.79	1785.83
647.99	1665.00
648.18	1734.63
648.37	1779.68
648.57	1665.00
648.76	1716.20
648.96	1632.23
649.15	1581.03
649.34	1791.97
649.54	1587.18
649.73	1619.94
649.92	1660.90
650.12	1791.97
650.31	1671.14
650.51	1841.12
650.70	1761.25
650.89	1691.62
651.09	1763.30
651.28	1728.49
651.47	1654.76
651.67	1724.39
651.86	1787.88
652.06	1595.37
652.25	1660.90
652.44	1638.38
652.64	1634.28
652.83	1652.71
653.02	1798.12
653.22	1744.87
653.41	1695.72
653.60	1687.53
653.80	1640.42
653.99	1748.97
654.18	1677.29
654.38	1652.71
654.57	1726.44
654.76	1695.72
654.96	1654.76
655.15	1675.24
655.34	1650.66
655.54	1593.32
655.73	1691.62
655.92	1628.14
656.12	1634.28
656.31	1755.11
656.50	1773.54
656.70	1695.72
656.89	1675.24
657.08	1644.52
657.28	1765.35
657.47	1660.90
657.66	1738.73
657.86	1701.86
658.05	1718.25
658.24	1777.64
658.43	1757.16
658.63	1624.04
658.82	1677.29
659.01	1746.92
659.21	1826.79
659.40	1646.57
659.59	1724.39
659.79	1699.81
659.98	1804.26
660.17	1708.01
660.36	1701.86
660.56	1746.92
660.75	1703.91
660.94	1705.96
661.14	1710.05
661.33	1636.33
661.52	1718.25
661.71	1820.64
661.91	1681.38
662.10	1767.40
662.29	1591.27
662.49	1638.38
662.68	1628.14
662.87	1689.57
663.06	1740.77
663.26	1640.42
663.45	1834.98
663.64	1763.30
663.83	1710.05
664.03	1763.30
664.22	1744.87
664.41	1843.17
664.60	1767.40
664.80	1644.52
664.99	1716.20
665.18	1726.44
665.37	1730.53
665.57	1775.59
665.76	1693.67
665.95	1701.86
666.14	1617.90
666.34	1722.34
666.53	1640.42
666.72	1644.52
666.91	1716.20
667.11	1695.72
667.30	1863.65
667.49	1644.52
667.68	1765.35
667.87	1681.38
668.07	1759.21
668.26	1613.80
668.45	1578.98
668.64	1716.20
668.84	1781.73
669.03	1634.28
669.22	1759.21
669.41	1687.53
669.60	1609.70
669.80	1753.06
669.99	1728.49
670.18	1748.97
670.37	1818.60
670.57	1728.49
670.76	1677.29
670.95	1773.54
671.14	1662.95
671.33	1677.29
671.53	1708.01
671.72	1734.63
671.91	1724.39
672.10	1667.05
672.29	1667.05
672.48	1652.71
672.68	1667.05
672.87	1665.00
673.06	1789.92
673.25	1662.95
673.44	1703.91
673.64	1599.46
673.83	1665.00
674.02	1705.96
674.21	1771.49
674.40	1689.57
674.59	1667.05
674.79	1667.05
674.98	1773.54
675.17	1757.16
675.36	1552.36
675.55	1679.33
675.74	1675.24
675.94	1769.44
676.13	1642.47
676.32	1683.43
676.51	1736.68
676.70	1564.65
676.89	1658.85
677.08	1638.38
677.28	1789.92
677.47	1683.43
677.66	1714.15
677.85	1630.18
678.04	1746.92
678.23	1720.29
678.42	1648.61
678.62	1658.85
678.81	1648.61
679.00	1703.91
679.19	1798.12
679.38	1734.63
679.57	1687.53
679.76	1654.76
679.96	1732.58
680.15	1804.26
680.34	1675.24
680.53	1648.61
680.72	1751.01
680.91	1728.49
681.10	1751.01
681.29	1718.25
681.48	1705.96
681.68	1656.81
681.87	1769.44
682.06	1673.19
682.25	1765.35
682.44	1644.52
682.63	1781.73
682.82	1624.04
683.01	1746.92
683.20	1654.76
683.39	1837.03
683.59	1648.61
683.78	1660.90
683.97	1667.05
684.16	1613.80
684.35	1589.22
684.54	1677.29
684.73	1621.99
684.92	1583.08
685.11	1716.20
685.30	1714.15
685.49	1681.38
685.69	1769.44
685.88	1703.91
686.07	1624.04
686.26	1691.62
686.45	1753.06
686.64	1708.01
686.83	1677.29
687.02	1662.95
687.21	1826.79
687.40	1619.94
687.59	1834.98
687.78	1712.10
687.97	1769.44
688.16	1683.43
688.35	1665.00
688.54	1699.81
688.74	1589.22
688.93	1718.25
689.12	1699.81
689.31	1925.09
689.50	1720.29
689.69	1593.32
689.88	1650.66
690.07	1587.18
690.26	1742.82
690.45	1632.23
690.64	1634.28
690.83	1628.14
691.02	1728.49
691.21	1726.44
691.40	1658.85
691.59	1712.10
691.78	1732.58
691.97	1667.05
692.16	1699.81
692.35	1677.29
692.54	1773.54
692.73	1624.04
692.92	1673.19
693.11	1777.64
693.30	1802.21
693.49	1652.71
693.68	1765.35
693.87	1687.53
694.06	1654.76
694.25	1658.85
694.44	1697.77
694.63	1703.91
694.82	1654.76
695.01	1644.52
695.20	1705.96
695.39	1671.14
695.58	1652.71
695.77	1613.80
695.96	1650.66
696.15	1634.28
696.34	1716.20
696.53	1615.85
696.72	1628.14
696.91	1660.90
697.10	1757.16
697.29	1679.33
697.48	1826.79
697.67	1712.10
697.86	1658.85
698.05	1644.52
698.24	1748.97
698.43	1716.20
698.62	1697.77
698.81	1708.01
699.00	1785.83
699.19	1753.06
699.38	1697.77
699.57	1630.18
699.76	1755.11
699.95	1624.04
700.14	1740.77
700.32	1644.52
700.51	1658.85
700.70	1693.67
700.89	1777.64
701.08	1724.39
701.27	1646.57
701.46	1769.44
701.65	1689.57
701.84	1611.75
702.03	1628.14
702.22	1708.01
702.41	1767.40
702.60	1734.63
702.79	1693.67
702.98	1650.66
703.17	1769.44
703.35	1675.24
703.54	1697.77
703.73	1681.38
703.92	1728.49
704.11	1648.61
704.30	1687.53
704.49	1771.49
704.68	1603.56
704.87	1710.05
705.06	1779.68
705.25	1681.38
705.43	1687.53
705.62	1636.33
705.81	1740.77
706.00	1689.57
706.19	1679.33
706.38	1718.25
706.57	1863.65
706.76	1689.57
706.95	1679.33
707.14	1791.97
707.32	1673.19
707.51	1695.72
707.70	1640.42
707.89	1673.19
708.08	1652.71
708.27	1615.85
708.46	1703.91
708.65	1601.51
708.84	1822.69
709.02	1722.34
709.21	1605.61
709.40	1714.15
709.59	1673.19
709.78	1777.64
709.97	1691.62
710.16	1738.73
710.34	1683.43
710.53	1681.38
710.72	1638.38
710.91	1732.58
711.10	1621.99
711.29	1662.95
711.48	1755.11
711.66	1734.63
711.85	1708.01
712.04	1740.77
712.23	1636.33
712.42	1740.77
712.61	1728.49
712.80	1662.95
712.98	1642.47
713.17	1617.90
713.36	1724.39
713.55	1718.25
713.74	1691.62
713.93	1708.01
714.11	1685.48
714.30	1554.41
714.49	1765.35
714.68	1656.81
714.87	1642.47
715.06	1771.49
715.24	1728.49
715.43	1738.73
715.62	1669.09
715.81	1667.05
716.00	1761.25
716.18	1687.53
716.37	1681.38
716.56	1634.28
716.75	1691.62
716.94	1660.90
717.12	1722.34
717.31	1654.76
717.50	1697.77
717.69	1669.09
717.88	1716.20
718.06	1675.24
718.25	1712.10
718.44	1607.66
718.63	1699.81
718.82	1603.56
719.00	1671.14
719.19	1855.46
719.38	1667.05
719.57	1626.09
719.76	1693.67
719.94	1724.39
720.13	1665.00
720.32	1808.36
720.51	1687.53
720.69	1691.62
720.88	1746.92
721.07	1689.57
721.26	1689.57
721.44	1613.80
721.63	1658.85
721.82	1748.97
722.01	1773.54
722.20	1689.57
722.38	1753.06
722.57	1621.99
722.76	1728.49
722.95	1636.33
723.13	1681.38
723.32	1681.38
723.51	1740.77
723.70	1695.72
723.88	1765.35
724.07	1619.94
724.26	1765.35
724.44	1736.68
724.63	1714.15
724.82	1773.54
725.01	1744.87
725.19	1667.05
725.38	1632.23
725.57	1632.23
725.76	1865.70
725.94	1615.85
726.13	1673.19
726.32	1638.38
726.51	1611.75
726.69	1669.09
726.88	1691.62
727.07	1673.19
727.25	1634.28
727.44	1683.43
727.63	1576.94
727.82	1669.09
728.00	1648.61
728.19	1708.01
728.38	1636.33
728.56	1591.27
728.75	1716.20
728.94	1648.61
729.12	1740.77
729.31	1665.00
729.50	1638.38
729.69	1662.95
729.87	1658.85
730.06	1665.00
730.25	1712.10
730.43	1785.83
730.62	1599.46
730.81	1689.57
730.99	1740.77
731.18	1671.14
731.37	1654.76
731.55	1605.61
731.74	1734.63
731.93	1724.39
732.11	1712.10
732.30	1720.29
732.49	1755.11
732.67	1615.85
732.86	1650.66
733.05	1667.05
733.23	1732.58
733.42	1640.42
733.61	1691.62
733.79	1683.43
733.98	1722.34
734.17	1728.49
734.35	1732.58
734.54	1748.97
734.73	1775.59
734.91	1648.61
735.10	1685.48
735.29	1722.34
735.47	1648.61
735.66	1640.42
735.84	1740.77
736.03	1689.57
736.22	1642.47
736.40	1665.00
736.59	1535.98
736.78	1650.66
736.96	1634.28
737.15	1740.77
737.33	1650.66
737.52	1591.27
737.71	1744.87
737.89	1687.53
738.08	1658.85
738.27	1757.16
738.45	1761.25
738.64	1687.53
738.82	1648.61
739.01	1667.05
739.20	1748.97
739.38	1726.44
739.57	1638.38
739.75	1642.47
739.94	1699.81
740.13	1581.03
740.31	1746.92
740.50	1667.05
740.68	1683.43
740.87	1624.04
741.06	1744.87
741.24	1740.77
741.43	1624.04
741.61	1624.04
741.80	1695.72
741.99	1601.51
742.17	1710.05
742.36	1593.32
742.54	1658.85
742.73	1683.43
742.91	1634.28
743.10	1640.42
743.29	1714.15
743.47	1632.23
743.66	1574.89
743.84	1650.66
744.03	1738.73
744.21	1613.80
744.40	1703.91
744.59	1693.67
744.77	1658.85
744.96	1712.10
745.14	1601.51
745.33	1714.15
745.51	1550.31
745.70	1640.42
745.88	1693.67
746.07	1642.47
746.26	1712.10
746.44	1576.94
746.63	1576.94
746.81	1724.39
747.00	1777.64
747.18	1699.81
747.37	1591.27
747.55	1701.86
747.74	1951.71
747.92	1716.20
748.11	1738.73
748.29	1656.81
748.48	1800.16
748.66	1699.81
748.85	1632.23
749.03	1671.14
749.22	1572.84
749.41	1654.76
749.59	1767.40
749.78	1636.33
749.96	1585.13
750.15	1712.10
750.33	1712.10
750.52	1660.90
750.70	1654.76
750.89	1744.87
751.07	1628.14
751.26	1716.20
751.44	1662.95
751.63	1697.77
751.81	1607.66
752.00	1685.48
752.18	1703.91
752.37	1718.25
752.55	1683.43
752.74	1611.75
752.92	1632.23
753.10	1679.33
753.29	1652.71
753.47	1673.19
753.66	1624.04
753.84	1701.86
754.03	1540.07
754.21	1681.38
754.40	1683.43
754.58	1728.49
754.77	1748.97
754.95	1757.16
755.14	1673.19
755.32	1658.85
755.51	1615.85
755.69	1611.75
755.88	1675.24
756.06	1748.97
756.24	1634.28
756.43	1728.49
756.61	1675.24
756.80	1572.84
756.98	1667.05
757.17	1740.77
757.35	1722.34
757.54	1718.25
757.72	1656.81
757.90	1650.66
758.09	1646.57
758.27	1581.03
758.46	1636.33
758.64	1761.25
758.83	1667.05
759.01	1671.14
759.19	1705.96
759.38	1748.97
759.56	1714.15
759.75	1556.46
759.93	1662.95
760.12	1621.99
760.30	1667.05
760.48	1683.43
760.67	1761.25
760.85	1687.53
761.04	1691.62
761.22	1685.48
761.40	1679.33
761.59	1628.14
761.77	1669.09
761.96	1638.38
762.14	1656.81
762.32	1769.44
762.51	1675.24
762.69	1621.99
762.88	1722.34
763.06	1605.61
763.24	1609.70
763.43	1695.72
763.61	1609.70
763.80	1642.47
763.98	1736.68
764.16	1542.12
764.35	1527.78
764.53	1652.71
764.72	1740.77
764.90	1681.38
765.08	1677.29
765.27	1734.63
765.45	1683.43
765.63	1722.34
765.82	1662.95
766.00	1626.09
766.18	1660.90
766.37	1603.56
766.55	1675.24
766.74	1634.28
766.92	1646.57
767.10	1628.14
767.29	1755.11
767.47	1597.42
767.65	1638.38
767.84	1677.29
768.02	1732.58
768.20	1673.19
768.39	1626.09
768.57	1578.98
768.75	1671.14
768.94	1820.64
769.12	1642.47
769.30	1607.66
769.49	1710.05
769.67	1648.61
769.85	1890.28
770.04	1626.09
770.22	1624.04
770.40	1771.49
770.59	1671.14
770.77	1746.92
770.95	1708.01
771.14	1675.24
771.32	1583.08
771.50	1605.61
771.69	1578.98
771.87	1667.05
772.05	1665.00
772.24	1624.04
772.42	1708.01
772.60	1636.33
772.78	1640.42
772.97	1595.37
773.15	1675.24
773.33	1691.62
773.52	1621.99
773.70	1550.31
773.88	1699.81
774.07	1630.18
774.25	1667.05
774.43	1718.25
774.61	1644.52
774.80	1591.27
774.98	1662.95
775.16	1648.61
775.34	1665.00
775.53	1705.96
775.71	1699.81
775.89	1619.94
776.08	1642.47
776.26	1648.61
776.44	1726.44
776.62	1650.66
776.81	1673.19
776.99	1697.77
777.17	1642.47
777.35	1691.62
777.54	1615.85
777.72	1712.10
777.90	1650.66
778.08	1564.65
778.27	1640.42
778.45	1595.37
778.63	1673.19
778.81	1644.52
779.00	1742.82
779.18	1642.47
779.36	1781.73
779.54	1728.49
779.73	1652.71
779.91	1626.09
780.09	1685.48
780.27	1630.18
780.46	1722.34
780.64	1525.74
780.82	1662.95
781.00	1652.71
781.19	1619.94
781.37	1703.91
781.55	1705.96
781.73	1624.04
781.91	1652.71
782.10	1697.77
782.28	1714.15
782.46	1624.04
782.64	1763.30
782.82	1695.72
783.01	1665.00
783.19	1681.38
783.37	1648.61
783.55	1589.22
783.74	1624.04
783.92	1611.75
784.10	1605.61
784.28	1726.44
784.46	1685.48
784.64	1634.28
784.83	1671.14
785.01	1828.84
785.19	1787.88
785.37	1728.49
785.55	1695.72
785.74	1660.90
785.92	1648.61
786.10	1650.66
786.28	1748.97
786.46	1687.53
786.64	1642.47
786.83	1654.76
787.01	1689.57
787.19	1744.87
787.37	1783.78
787.55	1634.28
787.74	1628.14
787.92	1695.72
788.10	1726.44
788.28	1640.42
788.46	1667.05
788.64	1718.25
788.82	1662.95
789.01	1671.14
789.19	1705.96
789.37	1751.01
789.55	1679.33
789.73	1591.27
789.91	1650.66
790.09	1708.01
790.28	1652.71
790.46	1687.53
790.64	1697.77
790.82	1603.56
791.00	1640.42
791.18	1712.10
791.36	1712.10
791.55	1703.91
791.73	1613.80
791.91	1626.09
792.09	1642.47
792.27	1554.41
792.45	1726.44
792.63	1734.63
792.81	1714.15
793.00	1701.86
793.18	1691.62
793.36	1699.81
793.54	1642.47
793.72	1681.38
793.90	1665.00
794.08	1613.80
794.26	1742.82
794.44	1593.32
794.62	1585.13
794.81	1564.65
794.99	1769.44
795.17	1703.91
795.35	1679.33
795.53	1642.47
795.71	1814.50
795.89	1640.42
796.07	1607.66
796.25	1687.53
796.43	1787.88
796.61	1703.91
796.80	1589.22
796.98	1679.33
797.16	1724.39
797.34	1558.50
797.52	1697.77
797.70	1722.34
797.88	1718.25
798.06	1640.42
798.24	1683.43
798.42	1597.42
798.60	1736.68
798.78	1650.66
798.96	1804.26
799.14	1628.14
799.32	1744.87
799.51	1658.85
799.69	1767.40
799.87	1748.97
800.05	1652.71
800.23	1591.27
800.41	1650.66
800.59	1738.73
800.77	1624.04
800.95	1517.54
801.13	1652.71
801.31	1654.76
801.49	1773.54
801.67	1587.18
801.85	1679.33
802.03	1656.81
802.21	1658.85
802.39	1533.93
802.57	1654.76
802.75	1748.97
802.93	1695.72
803.11	1615.85
803.29	1701.86
803.47	1695.72
803.65	1574.89
803.83	1658.85
804.01	1621.99
804.19	1624.04
804.37	1671.14
804.55	1572.84
804.73	1656.81
804.91	1615.85
805.09	1718.25
805.27	1679.33
805.45	1630.18
805.63	1611.75
805.81	1703.91
805.99	1757.16
806.17	1708.01
806.35	1548.26
806.53	1687.53
806.71	1634.28
806.89	1662.95
807.07	1726.44
807.25	1671.14
807.43	1630.18
807.61	1746.92
807.79	1703.91
807.97	1630.18
808.15	1656.81
808.33	1669.09
808.51	1708.01
808.69	1603.56
808.87	1638.38
809.05	1583.08
809.23	1634.28
809.41	1583.08
809.59	1556.46
809.77	1773.54
809.95	1640.42
810.13	1736.68
810.31	1677.29
810.49	1753.06
810.67	1660.90
810.84	1673.19
811.02	1720.29
811.20	1617.90
811.38	1804.26
811.56	1615.85
811.74	1720.29
811.92	1568.74
812.10	1632.23
812.28	1587.18
812.46	1712.10
812.64	1667.05
812.82	1621.99
813.00	1597.42
813.18	1619.94
813.36	1681.38
813.53	1642.47
813.71	1753.06
813.89	1691.62
814.07	1560.55
814.25	1716.20
814.43	1601.51
814.61	1538.02
814.79	1687.53
814.97	1689.57
815.15	1642.47
815.33	1538.02
815.50	1572.84
815.68	1621.99
815.86	1681.38
816.04	1648.61
816.22	1628.14
816.40	1646.57
816.58	1648.61
816.76	1607.66
816.94	1656.81
817.11	1632.23
817.29	1789.92
817.47	1710.05
817.65	1675.24
817.83	1603.56
818.01	1658.85
818.19	1568.74
818.37	1718.25
818.54	1683.43
818.72	1650.66
818.90	1748.97
819.08	1724.39
819.26	1757.16
819.44	1767.40
819.62	1628.14
819.80	1679.33
819.97	1734.63
820.15	1679.33
820.33	1626.09
820.51	1646.57
820.69	1656.81
820.87	1693.67
821.05	1775.59
821.22	1716.20
821.40	1708.01
821.58	1744.87
821.76	1585.13
821.94	1708.01
822.12	1667.05
822.29	1578.98
822.47	1673.19
822.65	1566.70
822.83	1636.33
823.01	1697.77
823.19	1609.70
823.36	1607.66
823.54	1638.38
823.72	1628.14
823.90	1732.58
824.08	1630.18
824.25	1648.61
824.43	1650.66
824.61	1624.04
824.79	1662.95
824.97	1548.26
825.15	1703.91
825.32	1638.38
825.50	1697.77
825.68	1595.37
825.86	1710.05
826.04	1609.70
826.21	1728.49
826.39	1658.85
826.57	1669.09
826.75	1804.26
826.93	1617.90
827.10	1699.81
827.28	1605.61
827.46	1658.85
827.64	1732.58
827.81	1630.18
827.99	1581.03
828.17	1703.91
828.35	1585.13
828.53	1654.76
828.70	1757.16
828.88	1603.56
829.06	1576.94
829.24	1609.70
829.41	1728.49
829.59	1728.49
829.77	1650.66
829.95	1650.66
830.12	1595.37
830.30	1656.81
830.48	1654.76
830.66	1607.66
830.84	1656.81
831.01	1675.24
831.19	1556.46
831.37	1771.49
831.55	1667.05
831.72	1740.77
831.90	1695.72
832.08	1689.57
832.25	1673.19
832.43	1751.01
832.61	1681.38
832.79	1630.18
832.96	1730.53
833.14	1759.21
833.32	1712.10
833.50	1603.56
833.67	1693.67
833.85	1615.85
834.03	1628.14
834.20	1646.57
834.38	1746.92
834.56	1671.14
834.74	1605.61
834.91	1615.85
835.09	1689.57
835.27	1662.95
835.44	1685.48
835.62	1546.22
835.80	1677.29
835.98	1648.61
836.15	1748.97
836.33	1673.19
836.51	1535.98
836.68	1640.42
836.86	1574.89
837.04	1726.44
837.21	1720.29
837.39	1714.15
837.57	1687.53
837.75	1697.77
837.92	1662.95
838.10	1617.90
838.28	1503.21
838.45	1685.48
838.63	1585.13
838.81	1771.49
838.98	1640.42
839.16	1740.77
839.34	1601.51
839.51	1640.42
839.69	1665.00
839.87	1628.14
840.04	1673.19
840.22	1888.23
840.40	1714.15
840.57	1531.88
840.75	1624.04
840.93	1578.98
841.10	1650.66
841.28	1683.43
841.46	1597.42
841.63	1742.82
841.81	1585.13
841.98	1554.41
842.16	1765.35
842.34	1712.10
842.51	1554.41
842.69	1634.28
842.87	1552.36
843.04	1685.48
843.22	1630.18
843.40	1646.57
843.57	1630.18
843.75	1601.51
843.92	1765.35
844.10	1632.23
844.28	1701.86
844.45	1624.04
844.63	1716.20
844.81	1634.28
844.98	1755.11
845.16	1617.90
845.33	1697.77
845.51	1650.66
845.69	1662.95
845.86	1777.64
846.04	1576.94
846.21	1628.14
846.39	1533.93
846.57	1662.95
846.74	1607.66
846.92	1615.85
847.09	1624.04
847.27	1699.81
847.45	1560.55
847.62	1699.81
847.80	1667.05
847.97	1669.09
848.15	1597.42
848.32	1626.09
848.50	1681.38
848.68	1544.17
848.85	1662.95
849.03	1472.49
849.20	1599.46
849.38	1722.34
849.56	1683.43
849.73	1603.56
849.91	1617.90
850.08	1708.01
850.26	1605.61
850.43	1683.43
850.61	1693.67
850.78	1544.17
850.96	1673.19
851.14	1583.08
851.31	1820.64
851.49	1564.65
851.66	1726.44
851.84	1564.65
852.01	1624.04
852.19	1521.64
852.36	1703.91
852.54	1628.14
852.71	1605.61
852.89	1687.53
853.07	1589.22
853.24	1644.52
853.42	1566.70
853.59	1634.28
853.77	1642.47
853.94	1730.53
854.12	1771.49
854.29	1581.03
854.47	1615.85
854.64	1740.77
854.82	1724.39
854.99	1714.15
855.17	1615.85
855.34	1615.85
855.52	1628.14
855.69	1746.92
855.87	1607.66
856.04	1685.48
856.22	1675.24
856.39	1738.73
856.57	1648.61
856.74	1581.03
856.92	1738.73
857.09	1517.54
857.27	1662.95
857.44	1669.09
857.62	1669.09
857.79	1669.09
857.97	1701.86
858.14	1619.94
858.32	1644.52
858.49	1576.94
858.67	1654.76
858.84	1656.81
859.02	1710.05
859.19	1656.81
859.37	1560.55
859.54	1564.65
859.72	1636.33
859.89	1634.28
860.06	1499.11
860.24	1667.05
860.41	1708.01
860.59	1542.12
860.76	1644.52
860.94	1544.17
861.11	1654.76
861.29	1716.20
861.46	1556.46
861.64	1665.00
861.81	1660.90
861.98	1675.24
862.16	1624.04
862.33	1538.02
862.51	1650.66
862.68	1673.19
862.86	1578.98
863.03	1626.09
863.21	1566.70
863.38	1644.52
863.55	1554.41
863.73	1699.81
863.90	1705.96
864.08	1687.53
864.25	1605.61
864.43	1685.48
864.60	1613.80
864.77	1621.99
864.95	1673.19
865.12	1636.33
865.30	1662.95
865.47	1705.96
865.64	1718.25
865.82	1679.33
865.99	1691.62
866.17	1673.19
866.34	1710.05
866.51	1554.41
866.69	1615.85
866.86	1718.25
867.04	1720.29
867.21	1654.76
867.38	1619.94
867.56	1638.38
867.73	1646.57
867.91	1646.57
868.08	1656.81
868.25	1558.50
868.43	1640.42
868.60	1669.09
868.78	1591.27
868.95	1736.68
869.12	1658.85
869.30	1648.61
869.47	1744.87
869.64	1609.70
869.82	1658.85
869.99	1665.00
870.16	1673.19
870.34	1665.00
870.51	1779.68
870.69	1546.22
870.86	1671.14
871.03	1699.81
871.21	1697.77
871.38	1789.92
871.55	1630.18
871.73	1644.52
871.90	1697.77
872.07	1654.76
872.25	1595.37
872.42	1605.61
872.59	1634.28
872.77	1730.53
872.94	1701.86
873.11	1630.18
873.29	1677.29
873.46	1662.95
873.63	1705.96
873.81	1648.61
873.98	1689.57
874.15	1578.98
874.33	1628.14
874.50	1615.85
874.67	1710.05
874.85	1589.22
875.02	1689.57
875.19	1609.70
875.37	1681.38
875.54	1544.17
875.71	1632.23
875.88	1701.86
876.06	1628.14
876.23	1683.43
876.40	1665.00
876.58	1683.43
876.75	1665.00
876.92	1568.74
877.10	1720.29
877.27	1681.38
877.44	1621.99
877.61	1558.50
877.79	1681.38
877.96	1646.57
878.13	1656.81
878.31	1617.90
878.48	1712.10
878.65	1683.43
878.82	1576.94
879.00	1630.18
879.17	1669.09
879.34	1591.27
879.51	1654.76
879.69	1673.19
879.86	1484.78
880.03	1654.76
880.21	1601.51
880.38	1628.14
880.55	1736.68
880.72	1712.10
880.90	1581.03
881.07	1634.28
881.24	1640.42
881.41	1603.56
881.59	1650.66
881.76	1726.44
881.93	1679.33
882.10	1628.14
882.28	1607.66
882.45	1611.75
882.62	1746.92
882.79	1624.04
882.96	1531.88
883.14	1722.34
883.31	1665.00
883.48	1648.61
883.65	1624.04
883.83	1691.62
884.00	1673.19
884.17	1591.27
884.34	1617.90
884.51	1722.34
884.69	1642.47
884.86	1517.54
885.03	1581.03
885.20	1576.94
885.38	1679.33
885.55	1679.33
885.72	1658.85
885.89	1538.02
886.06	1769.44
886.24	1632.23
886.41	1644.52
886.58	1728.49
886.75	1753.06
886.92	1593.32
887.10	1619.94
887.27	1589.22
887.44	1738.73
887.61	1718.25
887.78	1669.09
887.95	1642.47
888.13	1660.90
888.30	1742.82
888.47	1714.15
888.64	1679.33
888.81	1683.43
888.99	1564.65
889.16	1665.00
889.33	1609.70
889.50	1648.61
889.67	1687.53
889.84	1597.42
890.01	1671.14
890.19	1736.68
890.36	1720.29
890.53	1591.27
890.70	1587.18
890.87	1642.47
891.04	1589.22
891.22	1636.33
891.39	1677.29
891.56	1669.09
891.73	1720.29
891.90	1638.38
892.07	1544.17
892.24	1630.18
892.42	1624.04
892.59	1671.14
892.76	1679.33
892.93	1593.32
893.10	1662.95
893.27	1644.52
893.44	1578.98
893.61	1699.81
893.79	1665.00
893.96	1638.38
894.13	1626.09
894.30	1601.51
894.47	1660.90
894.64	1722.34
894.81	1697.77
894.98	1578.98
895.15	1660.90
895.33	1650.66
895.50	1568.74
895.67	1619.94
895.84	1681.38
896.01	1595.37
896.18	1554.41
896.35	1765.35
896.52	1683.43
896.69	1634.28
896.86	1720.29
897.04	1775.59
897.21	1650.66
897.38	1640.42
897.55	1701.86
897.72	1646.57
897.89	1626.09
898.06	1759.21
898.23	1587.18
898.40	1744.87
898.57	1669.09
898.74	1673.19
898.91	1578.98
899.08	1585.13
899.26	1675.24
899.43	1732.58
899.60	1626.09
899.77	1738.73
899.94	1621.99
900.11	1601.51
900.28	1576.94
900.45	1611.75
900.62	1511.40
900.79	1669.09
900.96	1687.53
901.13	1587.18
901.30	1650.66
901.47	1652.71
901.64	1527.78
901.81	1667.05
901.98	1679.33
902.15	1693.67
902.32	1523.69
902.49	1691.62
902.66	1640.42
902.83	1769.44
903.01	1576.94
903.18	1677.29
903.35	1595.37
903.52	1648.61
903.69	1685.48
903.86	1646.57
904.03	1554.41
904.20	1660.90
904.37	1712.10
904.54	1603.56
904.71	1712.10
904.88	1630.18
905.05	1621.99
905.22	1611.75
905.39	1513.45
905.56	1640.42
905.73	1601.51
905.90	1621.99
906.07	1695.72
906.24	1652.71
906.41	1675.24
906.58	1621.99
906.75	1566.70
906.92	1597.42
907.09	1542.12
907.26	1644.52
907.43	1562.60
907.60	1613.80
907.77	1574.89
907.93	1650.66
908.10	1646.57
908.27	1724.39
908.44	1599.46
908.61	1576.94
908.78	1654.76
908.95	1656.81
909.12	1603.56
909.29	1642.47
909.46	1603.56
909.63	1695.72
909.80	1681.38
909.97	1697.77
910.14	1683.43
910.31	1601.51
910.48	1595.37
910.65	1624.04
910.82	1665.00
910.99	1648.61
911.16	1703.91
911.33	1609.70
911.50	1658.85
911.66	1578.98
911.83	1642.47
912.00	1587.18
912.17	1619.94
912.34	1634.28
912.51	1599.46
912.68	1531.88
912.85	1683.43
913.02	1697.77
913.19	1648.61
913.36	1673.19
913.53	1701.86
913.70	1630.18
913.86	1751.01
914.03	1581.03
914.20	1613.80
914.37	1617.90
914.54	1671.14
914.71	1718.25
914.88	1732.58
915.05	1642.47
915.22	1658.85
915.39	1652.71
915.55	1593.32
915.72	1558.50
915.89	1642.47
916.06	1638.38
916.23	1626.09
916.40	1697.77
916.57	1624.04
916.74	1615.85
916.91	1611.75
917.07	1542.12
917.24	1581.03
917.41	1697.77
917.58	1660.90
917.75	1587.18
917.92	1550.31
918.09	1607.66
918.26	1583.08
918.42	1624.04
918.59	1693.67
918.76	1599.46
918.93	1640.42
919.10	1611.75
919.27	1712.10
919.44	1767.40
919.60	1652.71
919.77	1603.56
919.94	1593.32
920.11	1667.05
920.28	1718.25
920.45	1601.51
920.61	1527.78
920.78	1687.53
920.95	1689.57
921.12	1634.28
921.29	1597.42
921.46	1578.98
921.62	1511.40
921.79	1685.48
921.96	1613.80
922.13	1605.61
922.30	1644.52
922.47	1603.56
922.63	1585.13
922.80	1675.24
922.97	1597.42
923.14	1452.01
923.31	1576.94
923.47	1644.52
923.64	1759.21
923.81	1601.51
923.98	1699.81
924.15	1595.37
924.32	1630.18
924.48	1640.42
924.65	1734.63
924.82	1660.90
924.99	1658.85
925.15	1535.98
925.32	1767.40
925.49	1568.74
925.66	1599.46
925.83	1665.00
925.99	1652.71
926.16	1679.33
926.33	1656.81
926.50	1589.22
926.67	1578.98
926.83	1628.14
927.00	1679.33
927.17	1675.24
927.34	1583.08
927.50	1636.33
927.67	1832.93
927.84	1693.67
928.01	1624.04
928.17	1656.81
928.34	1605.61
928.51	1593.32
928.68	1693.67
928.84	1640.42
929.01	1650.66
929.18	1593.32
929.35	1603.56
929.51	1589.22
929.68	1621.99
929.85	1703.91
930.02	1642.47
930.18	1699.81
930.35	1755.11
930.52	1632.23
930.69	1642.47
930.85	1703.91
931.02	1593.32
931.19	1544.17
931.36	1634.28
931.52	1716.20
931.69	1611.75
931.86	1613.80
932.02	1691.62
932.19	1626.09
932.36	1628.14
932.53	1658.85
932.69	1554.41
932.86	1734.63
933.03	1654.76
933.19	1568.74
933.36	1638.38
933.53	1744.87
933.70	1617.90
933.86	1656.81
934.03	1693.67
934.20	1578.98
934.36	1665.00
934.53	1566.70
934.70	1558.50
934.86	1650.66
935.03	1626.09
935.20	1587.18
935.36	1671.14
935.53	1550.31
935.70	1527.78
935.86	1581.03
936.03	1560.55
936.20	1540.07
936.36	1636.33
936.53	1611.75
936.70	1591.27
936.86	1763.30
937.03	1757.16
937.20	1597.42
937.36	1720.29
937.53	1540.07
937.70	1607.66
937.86	1673.19
938.03	1540.07
938.20	1673.19
938.36	1603.56
938.53	1617.90
938.70	1564.65
938.86	1626.09
939.03	1617.90
939.20	1640.42
939.36	1613.80
939.53	1757.16
939.70	1798.12
939.86	1611.75
940.03	1609.70
940.19	1628.14
940.36	1654.76
940.53	1589.22
940.69	1675.24
940.86	1648.61
941.03	1679.33
941.19	1611.75
941.36	1587.18
941.52	1738.73
941.69	1624.04
941.86	1648.61
942.02	1708.01
942.19	1728.49
942.35	1738.73
942.52	1667.05
942.69	1708.01
942.85	1613.80
943.02	1589.22
943.18	1630.18
943.35	1665.00
943.52	1619.94
943.68	1538.02
943.85	1691.62
944.01	1593.32
944.18	1603.56
944.35	1681.38
944.51	1621.99
944.68	1552.36
944.84	1673.19
945.01	1583.08
945.17	1654.76
945.34	1617.90
945.51	1673.19
945.67	1642.47
945.84	1640.42
946.00	1601.51
946.17	1673.19
946.33	1626.09
946.50	1689.57
946.67	1650.66
946.83	1669.09
947.00	1677.29
947.16	1636.33
947.33	1607.66
947.49	1636.33
947.66	1576.94
947.82	1738.73
947.99	1597.42
948.16	1626.09
948.32	1609.70
948.49	1669.09
948.65	1595.37
948.82	1587.18
948.98	1607.66
949.15	1593.32
949.31	1687.53
949.48	1652.71
949.64	1662.95
949.81	1632.23
949.97	1630.18
950.14	1642.47
950.30	1535.98
950.47	1617.90
950.63	1654.76
950.80	1656.81
950.96	1533.93
951.13	1675.24
951.30	1634.28
951.46	1564.65
951.63	1699.81
951.79	1615.85
951.96	1683.43
952.12	1638.38
952.29	1699.81
952.45	1597.42
952.62	1591.27
952.78	1689.57
952.94	1673.19
953.11	1640.42
953.27	1607.66
953.44	1791.97
953.60	1609.70
953.77	1703.91
953.93	1595.37
954.10	1652.71
954.26	1572.84
954.43	1603.56
954.59	1714.15
954.76	1746.92
954.92	1595.37
955.09	1705.96
955.25	1546.22
955.42	1552.36
955.58	1689.57
955.75	1667.05
955.91	1646.57
956.07	1621.99
956.24	1667.05
956.40	1630.18
956.57	1667.05
956.73	1601.51
956.90	1605.61
957.06	1605.61
957.23	1486.83
957.39	1583.08
957.56	1665.00
957.72	1562.60
957.88	1523.69
958.05	1710.05
958.21	1710.05
958.38	1632.23
958.54	1619.94
958.71	1740.77
958.87	1617.90
959.03	1609.70
959.20	1630.18
959.36	1552.36
959.53	1660.90
959.69	1589.22
959.85	1691.62
960.02	1626.09
960.18	1615.85
960.35	1669.09
960.51	1656.81
960.68	1574.89
960.84	1632.23
961.00	1556.46
961.17	1564.65
961.33	1675.24
961.50	1648.61
961.66	1558.50
961.82	1652.71
961.99	1665.00
962.15	1621.99
962.31	1630.18
962.48	1701.86
962.64	1646.57
962.81	1699.81
962.97	1660.90
963.13	1619.94
963.30	1648.61
963.46	1613.80
963.62	1619.94
963.79	1650.66
963.95	1630.18
964.12	1650.66
964.28	1677.29
964.44	1558.50
964.61	1673.19
964.77	1634.28
964.93	1728.49
965.10	1564.65
965.26	1646.57
965.42	1603.56
965.59	1587.18
965.75	1646.57
965.92	1658.85
966.08	1642.47
966.24	1679.33
966.41	1560.55
966.57	1720.29
966.73	1630.18
966.90	1628.14
967.06	1673.19
967.22	1570.79
967.39	1630.18
967.55	1634.28
967.71	1601.51
967.88	1599.46
968.04	1652.71
968.20	1566.70
968.37	1595.37
968.53	1566.70
968.69	1558.50
968.85	1705.96
969.02	1722.34
969.18	1699.81
969.34	1632.23
969.51	1669.09
969.67	1712.10
969.83	1609.70
970.00	1683.43
970.16	1667.05
970.32	1626.09
970.48	1775.59
970.65	1589.22
970.81	1605.61
970.97	1607.66
971.14	1546.22
971.30	1730.53
971.46	1605.61
971.63	1640.42
971.79	1660.90
971.95	1662.95
972.11	1531.88
972.28	1644.52
972.44	1699.81
972.60	1548.26
972.76	1636.33
972.93	1705.96
973.09	1669.09
973.25	1658.85
973.42	1636.33
973.58	1669.09
973.74	1585.13
973.90	1677.29
974.07	1581.03
974.23	1626.09
974.39	1683.43
974.55	1665.00
974.72	1708.01
974.88	1624.04
975.04	1673.19
975.20	1621.99
975.37	1615.85
975.53	1624.04
975.69	1607.66
975.85	1597.42
976.01	1587.18
976.18	1589.22
976.34	1624.04
976.50	1677.29
976.66	1714.15
976.83	1683.43
976.99	1570.79
977.15	1705.96
977.31	1564.65
977.47	1701.86
977.64	1609.70
977.80	1583.08
977.96	1640.42
978.12	1583.08
978.29	1634.28
978.45	1599.46
978.61	1601.51
978.77	1720.29
978.93	1609.70
979.10	1705.96
979.26	1591.27
979.42	1683.43
979.58	1495.02
979.74	1538.02
979.91	1673.19
980.07	1527.78
980.23	1613.80
980.39	1650.66
980.55	1617.90
980.71	1611.75
980.88	1556.46
981.04	1624.04
981.20	1624.04
981.36	1656.81
981.52	1560.55
981.68	1560.55
981.85	1714.15
982.01	1660.90
982.17	1581.03
982.33	1638.38
982.49	1662.95
982.65	1560.55
982.82	1581.03
982.98	1630.18
983.14	1560.55
983.30	1714.15
983.46	1619.94
983.62	1650.66
983.79	1554.41
983.95	1572.84
984.11	1540.07
984.27	1677.29
984.43	1689.57
984.59	1652.71
984.75	1662.95
984.91	1656.81
985.08	1677.29
985.24	1591.27
985.40	1597.42
985.56	1656.81
985.72	1699.81
985.88	1667.05
986.04	1673.19
986.20	1550.31
986.37	1624.04
986.53	1613.80
986.69	1679.33
986.85	1599.46
987.01	1613.80
987.17	1607.66
987.33	1535.98
987.49	1619.94
987.65	1697.77
987.82	1621.99
987.98	1566.70
988.14	1621.99
988.30	1613.80
988.46	1574.89
988.62	1654.76
988.78	1628.14
988.94	1662.95
989.10	1564.65
989.26	1589.22
989.42	1554.41
989.59	1595.37
989.75	1626.09
989.91	1726.44
990.07	1558.50
990.23	1609.70
990.39	1654.76
990.55	1624.04
990.71	1566.70
990.87	1650.66
991.03	1648.61
991.19	1562.60
991.35	1552.36
991.51	1701.86
991.67	1675.24
991.83	1628.14
992.00	1638.38
992.16	1636.33
992.32	1658.85
992.48	1554.41
992.64	1589.22
992.80	1675.24
992.96	1552.36
993.12	1621.99
993.28	1660.90
993.44	1568.74
993.60	1640.42
993.76	1566.70
993.92	1634.28
994.08	1658.85
994.24	1658.85
994.40	1603.56
994.56	1652.71
994.72	1560.55
994.88	1544.17
995.04	1662.95
995.20	1601.51
995.36	1560.55
995.52	1658.85
995.68	1562.60
995.84	1521.64
996.00	1732.58
996.16	1587.18
996.32	1609.70
996.48	1613.80
996.64	1716.20
996.80	1601.51
996.96	1615.85
997.12	1677.29
997.28	1558.50
997.44	1576.94
997.60	1570.79
997.76	1531.88
997.92	1656.81
998.08	1646.57
998.24	1535.98
998.40	1566.70
998.56	1675.24
998.72	1556.46
998.88	1552.36
999.04	1564.65
999.20	1687.53
999.36	1562.60
999.52	1722.34
999.68	1593.32
999.84	1699.81
1000.00	1611.75
1000.16	1638.38
1000.32	1605.61
1000.48	1796.07
1000.64	1552.36
1000.80	1560.55
1000.95	1644.52
1001.11	1673.19
1001.27	1517.54
1001.43	1550.31
1001.59	1525.74
1001.75	1650.66
1001.91	1648.61
1002.07	1544.17
1002.23	1585.13
1002.39	1630.18
1002.55	1574.89
1002.71	1566.70
1002.87	1609.70
1003.03	1591.27
1003.19	1544.17
1003.34	1673.19
1003.50	1617.90
1003.66	1634.28
1003.82	1634.28
1003.98	1640.42
1004.14	1611.75
1004.30	1517.54
1004.46	1564.65
1004.62	1628.14
1004.78	1607.66
1004.94	1585.13
1005.09	1703.91
1005.25	1724.39
1005.41	1564.65
1005.57	1642.47
1005.73	1503.21
1005.89	1628.14
1006.05	1636.33
1006.21	1617.90
1006.37	1538.02
1006.52	1501.16
1006.68	1515.50
1006.84	1732.58
1007.00	1617.90
1007.16	1712.10
1007.32	1619.94
1007.48	1609.70
1007.64	1650.66
1007.79	1564.65
1007.95	1513.45
1008.11	1677.29
1008.27	1572.84
1008.43	1511.40
1008.59	1636.33
1008.75	1658.85
1008.91	1619.94
1009.06	1566.70
1009.22	1671.14
1009.38	1558.50
1009.54	1673.19
1009.70	1603.56
1009.86	1675.24
1010.01	1701.86
1010.17	1578.98
1010.33	1607.66
1010.49	1667.05
1010.65	1607.66
1010.81	1585.13
1010.96	1671.14
1011.12	1560.55
1011.28	1568.74
1011.44	1671.14
1011.60	1650.66
1011.76	1544.17
1011.91	1740.77
1012.07	1550.31
1012.23	1499.11
1012.39	1466.35
1012.55	1648.61
1012.71	1542.12
1012.86	1558.50
1013.02	1593.32
1013.18	1656.81
1013.34	1601.51
1013.50	1712.10
1013.65	1665.00
1013.81	1597.42
1013.97	1511.40
1014.13	1556.46
1014.29	1619.94
1014.44	1652.71
1014.60	1648.61
1014.76	1601.51
1014.92	1654.76
1015.07	1646.57
1015.23	1714.15
1015.39	1599.46
1015.55	1540.07
1015.71	1583.08
1015.86	1570.79
1016.02	1617.90
1016.18	1499.11
1016.34	1699.81
1016.49	1603.56
1016.65	1693.67
1016.81	1630.18
1016.97	1595.37
1017.12	1722.34
1017.28	1552.36
1017.44	1566.70
1017.60	1597.42
1017.75	1638.38
1017.91	1619.94
1018.07	1576.94
1018.23	1593.32
1018.38	1583.08
1018.54	1605.61
1018.70	1634.28
1018.86	1578.98
1019.01	1593.32
1019.17	1566.70
1019.33	1699.81
1019.49	1642.47
1019.64	1621.99
1019.80	1581.03
1019.96	1662.95
1020.12	1650.66
1020.27	1570.79
1020.43	1636.33
1020.59	1662.95
1020.74	1648.61
1020.90	1691.62
1021.06	1589.22
1021.22	1638.38
1021.37	1597.42
1021.53	1601.51
1021.69	1640.42
1021.84	1570.79
1022.00	1617.90
1022.16	1562.60
1022.31	1630.18
1022.47	1595.37
1022.63	1710.05
1022.79	1525.74
1022.94	1585.13
1023.10	1683.43
1023.26	1630.18
1023.41	1552.36
1023.57	1646.57
1023.73	1675.24
1023.88	1624.04
1024.04	1558.50
1024.20	1533.93
1024.35	1650.66
1024.51	1669.09
1024.67	1576.94
1024.82	1677.29
1024.98	1605.61
1025.14	1683.43
1025.29	1601.51
1025.45	1701.86
1025.61	1509.35
1025.76	1624.04
1025.92	1644.52
1026.08	1642.47
1026.23	1683.43
1026.39	1654.76
1026.55	1632.23
1026.70	1570.79
1026.86	1644.52
1027.02	1689.57
1027.17	1671.14
1027.33	1662.95
1027.48	1634.28
1027.64	1560.55
1027.80	1646.57
1027.95	1773.54
1028.11	1544.17
1028.27	1630.18
1028.42	1601.51
1028.58	1617.90
1028.73	1611.75
1028.89	1570.79
1029.05	1693.67
1029.20	1738.73
>>>>>End Processed Spectral Data<<<<<
