SpectraSuite Data File
++++++++++++++++++++++++++++++++++++
Date: Fri Jun 02 14:52:22 CEST 2017
User: INFO_000
Dark Spectrum Present: No
Reference Spectrum Present: No
Number of Sampled Component Spectra: 1
Spectrometers: USB4H00879
Integration Time (usec): 80000 (USB4H00879)
Spectra Averaged: 1 (USB4H00879)
Boxcar Smoothing: 0 (USB4H00879)
Correct for Electrical Dark: No (USB4H00879)
Strobe/Lamp Enabled: No (USB4H00879)
Correct for Detector Non-linearity: No (USB4H00879)
Correct for Stray Light: No (USB4H00879)
Number of Pixels in Processed Spectrum: 3648
>>>>>Begin Processed Spectral Data<<<<<
345.13	1245.16
345.34	1245.16
345.56	1245.16
345.78	1234.93
345.99	1273.84
346.21	1740.77
346.42	1742.82
346.64	1677.29
346.86	1820.64
347.07	1654.76
347.29	1714.15
347.50	1583.08
347.72	1697.77
347.94	1800.16
348.15	1564.65
348.37	1566.70
348.59	1736.68
348.80	1583.08
349.02	1701.86
349.23	1740.77
349.45	1699.81
349.67	1751.01
349.88	1685.48
350.10	1794.02
350.31	1753.06
350.53	1746.92
350.75	1845.22
350.96	1640.42
351.18	1744.87
351.39	1712.10
351.61	1705.96
351.82	1757.16
352.04	1789.92
352.26	1716.20
352.47	1673.19
352.69	1734.63
352.90	1574.89
353.12	1658.85
353.34	1714.15
353.55	1787.88
353.77	1734.63
353.98	1687.53
354.20	1593.32
354.41	1728.49
354.63	1765.35
354.85	1861.60
355.06	1695.72
355.28	1609.70
355.49	1740.77
355.71	1763.30
355.92	1763.30
356.14	1712.10
356.35	1712.10
356.57	1675.24
356.79	1769.44
357.00	1718.25
357.22	1732.58
357.43	1701.86
357.65	1757.16
357.86	1681.38
358.08	1601.51
358.29	1767.40
358.51	1771.49
358.72	1789.92
358.94	1734.63
359.16	1681.38
359.37	1757.16
359.59	1708.01
359.80	1771.49
360.02	1691.62
360.23	1734.63
360.45	1703.91
360.66	1648.61
360.88	1703.91
361.09	1691.62
361.31	1746.92
361.52	1753.06
361.74	1748.97
361.95	1824.74
362.17	1697.77
362.38	1787.88
362.60	1740.77
362.81	1701.86
363.03	1658.85
363.24	1751.01
363.46	1798.12
363.67	1759.21
363.89	1671.14
364.10	1720.29
364.32	1677.29
364.53	1775.59
364.75	1560.55
364.96	1781.73
365.18	1751.01
365.39	1679.33
365.61	1617.90
365.82	1867.75
366.04	1642.47
366.25	1685.48
366.47	1738.73
366.68	1736.68
366.90	1667.05
367.11	1732.58
367.33	1814.50
367.54	1804.26
367.76	1665.00
367.97	1718.25
368.19	1693.67
368.40	1736.68
368.62	1693.67
368.83	1652.71
369.05	1781.73
369.26	1685.48
369.48	1693.67
369.69	1632.23
369.91	1701.86
370.12	1761.25
370.33	1691.62
370.55	1652.71
370.76	1710.05
370.98	1740.77
371.19	1689.57
371.41	1714.15
371.62	1724.39
371.84	1679.33
372.05	1830.88
372.27	1722.34
372.48	1675.24
372.69	1748.97
372.91	1822.69
373.12	1787.88
373.34	1732.58
373.55	1699.81
373.77	1712.10
373.98	1667.05
374.20	1712.10
374.41	1832.93
374.62	1681.38
374.84	1738.73
375.05	1646.57
375.27	1669.09
375.48	1716.20
375.70	1798.12
375.91	1724.39
376.12	1824.74
376.34	1714.15
376.55	1730.53
376.77	1806.31
376.98	1646.57
377.19	1644.52
377.41	1691.62
377.62	1679.33
377.84	1703.91
378.05	1781.73
378.27	1615.85
378.48	1806.31
378.69	1925.09
378.91	1738.73
379.12	1759.21
379.34	1740.77
379.55	1667.05
379.76	1716.20
379.98	1751.01
380.19	1789.92
380.41	1738.73
380.62	1830.88
380.83	1669.09
381.05	1595.37
381.26	1828.84
381.47	1605.61
381.69	1746.92
381.90	1837.03
382.12	1728.49
382.33	1679.33
382.54	1716.20
382.76	1621.99
382.97	1710.05
383.19	1665.00
383.40	1843.17
383.61	1695.72
383.83	1716.20
384.04	1665.00
384.25	1732.58
384.47	1710.05
384.68	1640.42
384.89	1621.99
385.11	1613.80
385.32	1679.33
385.54	1671.14
385.75	1691.62
385.96	1708.01
386.18	1712.10
386.39	1720.29
386.60	1660.90
386.82	1740.77
387.03	1624.04
387.24	1806.31
387.46	1728.49
387.67	1705.96
387.88	1640.42
388.10	1656.81
388.31	1693.67
388.52	1736.68
388.74	1769.44
388.95	1693.67
389.16	1679.33
389.38	1693.67
389.59	1798.12
389.80	1785.83
390.02	1738.73
390.23	1740.77
390.44	1619.94
390.66	1675.24
390.87	1624.04
391.08	1712.10
391.30	1738.73
391.51	1697.77
391.72	1714.15
391.94	1757.16
392.15	1699.81
392.36	1671.14
392.58	1650.66
392.79	1650.66
393.00	1740.77
393.22	1695.72
393.43	1820.64
393.64	1740.77
393.85	1820.64
394.07	1685.48
394.28	1681.38
394.49	1644.52
394.71	1759.21
394.92	1724.39
395.13	1669.09
395.35	1712.10
395.56	1687.53
395.77	1728.49
395.98	1656.81
396.20	1693.67
396.41	1703.91
396.62	1720.29
396.84	1714.15
397.05	1683.43
397.26	1671.14
397.47	1798.12
397.69	1683.43
397.90	1900.52
398.11	1736.68
398.32	1650.66
398.54	1660.90
398.75	1730.53
398.96	1769.44
399.18	1777.64
399.39	1624.04
399.60	1800.16
399.81	1701.86
400.03	1630.18
400.24	1888.23
400.45	1712.10
400.66	1683.43
400.88	1634.28
401.09	1830.88
401.30	1734.63
401.51	1812.45
401.73	1804.26
401.94	1802.21
402.15	1736.68
402.36	1697.77
402.58	1736.68
402.79	1740.77
403.00	1673.19
403.21	1804.26
403.43	1777.64
403.64	1734.63
403.85	1712.10
404.06	1816.55
404.27	1697.77
404.49	1761.25
404.70	1667.05
404.91	1683.43
405.12	1687.53
405.34	1798.12
405.55	1810.40
405.76	1603.56
405.97	1697.77
406.19	1767.40
406.40	1654.76
406.61	1701.86
406.82	1699.81
407.03	1712.10
407.25	1654.76
407.46	1861.60
407.67	1714.15
407.88	1802.21
408.09	1740.77
408.31	1650.66
408.52	1658.85
408.73	1748.97
408.94	1697.77
409.15	1738.73
409.37	1744.87
409.58	1722.34
409.79	1761.25
410.00	1777.64
410.21	1642.47
410.43	1646.57
410.64	1703.91
410.85	1732.58
411.06	1681.38
411.27	1738.73
411.48	1845.22
411.70	1705.96
411.91	1742.82
412.12	1802.21
412.33	1732.58
412.54	1689.57
412.76	1777.64
412.97	1773.54
413.18	1650.66
413.39	1708.01
413.60	1736.68
413.81	1667.05
414.03	1697.77
414.24	1736.68
414.45	1839.08
414.66	1656.81
414.87	1708.01
415.08	1703.91
415.30	1667.05
415.51	1687.53
415.72	1572.84
415.93	1650.66
416.14	1732.58
416.35	1708.01
416.56	1806.31
416.78	1675.24
416.99	1759.21
417.20	1814.50
417.41	1724.39
417.62	1689.57
417.83	1720.29
418.04	1753.06
418.26	1761.25
418.47	1656.81
418.68	1765.35
418.89	1728.49
419.10	1918.95
419.31	1710.05
419.52	1748.97
419.73	1773.54
419.95	1794.02
420.16	1765.35
420.37	1730.53
420.58	1714.15
420.79	1673.19
421.00	1640.42
421.21	1748.97
421.42	1689.57
421.63	1665.00
421.85	1675.24
422.06	1714.15
422.27	1722.34
422.48	1652.71
422.69	1714.15
422.90	1697.77
423.11	1636.33
423.32	1759.21
423.53	1773.54
423.75	1621.99
423.96	1755.11
424.17	1837.03
424.38	1798.12
424.59	1726.44
424.80	1724.39
425.01	1665.00
425.22	1609.70
425.43	1724.39
425.64	1816.55
425.85	1767.40
426.06	1755.11
426.28	1730.53
426.49	1652.71
426.70	1593.32
426.91	1683.43
427.12	1765.35
427.33	1763.30
427.54	1710.05
427.75	1705.96
427.96	1648.61
428.17	1705.96
428.38	1679.33
428.59	1777.64
428.80	1705.96
429.01	1691.62
429.23	1638.38
429.44	1716.20
429.65	1757.16
429.86	1677.29
430.07	1667.05
430.28	1718.25
430.49	1695.72
430.70	1794.02
430.91	1820.64
431.12	1624.04
431.33	1660.90
431.54	1748.97
431.75	1675.24
431.96	1751.01
432.17	1753.06
432.38	1720.29
432.59	1826.79
432.80	1837.03
433.01	1720.29
433.22	1652.71
433.43	1720.29
433.64	1724.39
433.85	1812.45
434.06	1617.90
434.27	1642.47
434.49	1701.86
434.70	1746.92
434.91	1675.24
435.12	1710.05
435.33	1736.68
435.54	1660.90
435.75	1603.56
435.96	1681.38
436.17	1732.58
436.38	1710.05
436.59	1732.58
436.80	1595.37
437.01	1736.68
437.22	1773.54
437.43	1718.25
437.64	1638.38
437.85	1722.34
438.06	1740.77
438.27	1665.00
438.48	1677.29
438.69	1736.68
438.90	1650.66
439.11	1642.47
439.32	1824.74
439.53	1585.13
439.74	1640.42
439.95	1679.33
440.16	1693.67
440.37	1765.35
440.57	1617.90
440.78	1689.57
440.99	1638.38
441.20	1724.39
441.41	1568.74
441.62	1697.77
441.83	1714.15
442.04	1609.70
442.25	1687.53
442.46	1615.85
442.67	1701.86
442.88	1806.31
443.09	1654.76
443.30	1671.14
443.51	1695.72
443.72	1617.90
443.93	1671.14
444.14	1804.26
444.35	1640.42
444.56	1658.85
444.77	1605.61
444.98	1673.19
445.19	1667.05
445.40	1726.44
445.61	1662.95
445.81	1718.25
446.02	1759.21
446.23	1691.62
446.44	1626.09
446.65	1693.67
446.86	1730.53
447.07	1828.84
447.28	1691.62
447.49	1656.81
447.70	1685.48
447.91	1732.58
448.12	1722.34
448.33	1740.77
448.54	1667.05
448.74	1703.91
448.95	1621.99
449.16	1679.33
449.37	1738.73
449.58	1716.20
449.79	1765.35
450.00	1697.77
450.21	1675.24
450.42	1720.29
450.63	1732.58
450.84	1697.77
451.05	1677.29
451.25	1621.99
451.46	1652.71
451.67	1785.83
451.88	1640.42
452.09	1728.49
452.30	1671.14
452.51	1634.28
452.72	1865.70
452.93	1794.02
453.13	1691.62
453.34	1591.27
453.55	1681.38
453.76	1695.72
453.97	1662.95
454.18	1572.84
454.39	1748.97
454.60	1751.01
454.81	1703.91
455.01	1798.12
455.22	1583.08
455.43	1642.47
455.64	1720.29
455.85	1716.20
456.06	1722.34
456.27	1771.49
456.48	1708.01
456.68	1667.05
456.89	1781.73
457.10	1671.14
457.31	1771.49
457.52	1720.29
457.73	1683.43
457.94	1787.88
458.14	1617.90
458.35	1755.11
458.56	1738.73
458.77	1654.76
458.98	1662.95
459.19	1658.85
459.39	1695.72
459.60	1654.76
459.81	1638.38
460.02	1718.25
460.23	1714.15
460.44	1644.52
460.65	1687.53
460.85	1695.72
461.06	1685.48
461.27	1699.81
461.48	1708.01
461.69	1669.09
461.89	1640.42
462.10	1667.05
462.31	1597.42
462.52	1609.70
462.73	1638.38
462.94	1830.88
463.14	1662.95
463.35	1744.87
463.56	1830.88
463.77	1718.25
463.98	1665.00
464.18	1796.07
464.39	1742.82
464.60	1650.66
464.81	1675.24
465.02	1759.21
465.23	1675.24
465.43	1675.24
465.64	1697.77
465.85	1617.90
466.06	1712.10
466.27	1751.01
466.47	1705.96
466.68	1742.82
466.89	1705.96
467.10	1615.85
467.30	1628.14
467.51	1736.68
467.72	1759.21
467.93	1617.90
468.14	1695.72
468.34	1832.93
468.55	1656.81
468.76	1781.73
468.97	1683.43
469.17	1732.58
469.38	1898.47
469.59	1714.15
469.80	1697.77
470.01	1724.39
470.21	1699.81
470.42	1591.27
470.63	1759.21
470.84	1775.59
471.04	1736.68
471.25	1779.68
471.46	1761.25
471.67	1726.44
471.87	1726.44
472.08	1736.68
472.29	1656.81
472.50	1763.30
472.70	1728.49
472.91	1708.01
473.12	1601.51
473.33	1658.85
473.53	1710.05
473.74	1667.05
473.95	1628.14
474.16	1640.42
474.36	1630.18
474.57	1718.25
474.78	1638.38
474.99	1716.20
475.19	1703.91
475.40	1755.11
475.61	1742.82
475.81	1716.20
476.02	1689.57
476.23	1777.64
476.44	1728.49
476.64	1669.09
476.85	1710.05
477.06	1732.58
477.27	1699.81
477.47	1720.29
477.68	1726.44
477.89	1765.35
478.09	1759.21
478.30	1660.90
478.51	1667.05
478.71	1640.42
478.92	1814.50
479.13	1695.72
479.34	1636.33
479.54	1677.29
479.75	1656.81
479.96	1640.42
480.16	1642.47
480.37	1646.57
480.58	1732.58
480.78	1740.77
480.99	1744.87
481.20	1697.77
481.41	1718.25
481.61	1695.72
481.82	1789.92
482.03	1669.09
482.23	1628.14
482.44	1753.06
482.65	1798.12
482.85	1826.79
483.06	1640.42
483.27	1742.82
483.47	1814.50
483.68	1650.66
483.89	1736.68
484.09	1697.77
484.30	1718.25
484.51	1740.77
484.71	1595.37
484.92	1693.67
485.13	1654.76
485.33	1632.23
485.54	1636.33
485.75	1771.49
485.95	1783.78
486.16	1675.24
486.37	1640.42
486.57	1665.00
486.78	1683.43
486.98	1687.53
487.19	1665.00
487.40	1732.58
487.60	1671.14
487.81	1693.67
488.02	1632.23
488.22	1718.25
488.43	1773.54
488.64	1691.62
488.84	1630.18
489.05	1683.43
489.25	1658.85
489.46	1730.53
489.67	1693.67
489.87	1820.64
490.08	1683.43
490.29	1650.66
490.49	1804.26
490.70	1730.53
490.90	1675.24
491.11	1669.09
491.32	1689.57
491.52	1658.85
491.73	1724.39
491.94	1665.00
492.14	1624.04
492.35	1632.23
492.55	1675.24
492.76	1736.68
492.97	1591.27
493.17	1779.68
493.38	1761.25
493.58	1810.40
493.79	1667.05
494.00	1691.62
494.20	1650.66
494.41	1779.68
494.61	1728.49
494.82	1734.63
495.02	1591.27
495.23	1804.26
495.44	1728.49
495.64	1720.29
495.85	1650.66
496.05	1703.91
496.26	1671.14
496.47	1687.53
496.67	1650.66
496.88	1716.20
497.08	1658.85
497.29	1712.10
497.49	1796.07
497.70	1703.91
497.91	1660.90
498.11	1812.45
498.32	1673.19
498.52	1759.21
498.73	1757.16
498.93	1818.60
499.14	1753.06
499.34	1736.68
499.55	1732.58
499.76	1636.33
499.96	1701.86
500.17	1767.40
500.37	1656.81
500.58	1597.42
500.78	1642.47
500.99	1628.14
501.19	1683.43
501.40	1755.11
501.60	1587.18
501.81	1656.81
502.02	1794.02
502.22	1681.38
502.43	1765.35
502.63	1812.45
502.84	1748.97
503.04	1736.68
503.25	1667.05
503.45	1736.68
503.66	1650.66
503.86	1710.05
504.07	1773.54
504.27	1646.57
504.48	1708.01
504.68	1693.67
504.89	1877.99
505.09	1650.66
505.30	1675.24
505.50	1691.62
505.71	1638.38
505.91	1726.44
506.12	1699.81
506.32	1667.05
506.53	1667.05
506.73	1701.86
506.94	1613.80
507.14	1624.04
507.35	1824.74
507.55	1712.10
507.76	1712.10
507.96	1634.28
508.17	1734.63
508.37	1652.71
508.58	1798.12
508.78	1751.01
508.99	1767.40
509.19	1785.83
509.40	1712.10
509.60	1738.73
509.81	1812.45
510.01	1677.29
510.22	1689.57
510.42	1724.39
510.63	1708.01
510.83	1632.23
511.04	1615.85
511.24	1761.25
511.44	1734.63
511.65	1681.38
511.85	1740.77
512.06	1732.58
512.26	1646.57
512.47	1720.29
512.67	1638.38
512.88	1740.77
513.08	1689.57
513.29	1810.40
513.49	1636.33
513.69	1763.30
513.90	1699.81
514.10	1773.54
514.31	1734.63
514.51	1667.05
514.72	1759.21
514.92	1744.87
515.13	1738.73
515.33	1689.57
515.53	1708.01
515.74	1748.97
515.94	1650.66
516.15	1830.88
516.35	1603.56
516.56	1597.42
516.76	1599.46
516.96	1689.57
517.17	1761.25
517.37	1724.39
517.58	1570.79
517.78	1632.23
517.99	1824.74
518.19	1830.88
518.39	1650.66
518.60	1751.01
518.80	1703.91
519.01	1771.49
519.21	1593.32
519.41	1636.33
519.62	1574.89
519.82	1681.38
520.03	1720.29
520.23	1679.33
520.43	1613.80
520.64	1746.92
520.84	1884.13
521.05	1615.85
521.25	1691.62
521.45	1665.00
521.66	1703.91
521.86	1683.43
522.07	1718.25
522.27	1675.24
522.47	1660.90
522.68	1679.33
522.88	1673.19
523.08	1777.64
523.29	1595.37
523.49	1673.19
523.70	1636.33
523.90	1712.10
524.10	1679.33
524.31	1609.70
524.51	1597.42
524.71	1759.21
524.92	1693.67
525.12	1611.75
525.33	1744.87
525.53	1718.25
525.73	1738.73
525.94	1632.23
526.14	1615.85
526.34	1605.61
526.55	1732.58
526.75	1691.62
526.95	1771.49
527.16	1642.47
527.36	1740.77
527.56	1683.43
527.77	1597.42
527.97	1705.96
528.17	1753.06
528.38	1726.44
528.58	1742.82
528.78	1662.95
528.99	1656.81
529.19	1681.38
529.39	1673.19
529.60	1667.05
529.80	1712.10
530.00	1648.61
530.21	1734.63
530.41	1630.18
530.61	1755.11
530.82	1601.51
531.02	1712.10
531.22	1720.29
531.43	1726.44
531.63	1695.72
531.83	1689.57
532.04	1740.77
532.24	1685.48
532.44	1646.57
532.64	1798.12
532.85	1634.28
533.05	1601.51
533.25	1673.19
533.46	1722.34
533.66	1765.35
533.86	1771.49
534.07	1728.49
534.27	1734.63
534.47	1726.44
534.67	1742.82
534.88	1789.92
535.08	1806.31
535.28	1839.08
535.49	1636.33
535.69	1728.49
535.89	1685.48
536.09	1712.10
536.30	1796.07
536.50	1712.10
536.70	1675.24
536.91	1687.53
537.11	1730.53
537.31	1644.52
537.51	1621.99
537.72	1718.25
537.92	1679.33
538.12	1781.73
538.32	1755.11
538.53	1716.20
538.73	1724.39
538.93	1740.77
539.13	1712.10
539.34	1830.88
539.54	1589.22
539.74	1708.01
539.94	1708.01
540.15	1773.54
540.35	1701.86
540.55	1712.10
540.75	1656.81
540.96	1718.25
541.16	1753.06
541.36	1765.35
541.56	1724.39
541.77	1812.45
541.97	1751.01
542.17	1691.62
542.37	1787.88
542.58	1722.34
542.78	1712.10
542.98	1730.53
543.18	1757.16
543.38	1732.58
543.59	1757.16
543.79	1705.96
543.99	1636.33
544.19	1591.27
544.40	1765.35
544.60	1669.09
544.80	1621.99
545.00	1615.85
545.20	1748.97
545.41	1636.33
545.61	1615.85
545.81	1720.29
546.01	1710.05
546.21	1693.67
546.42	1820.64
546.62	1742.82
546.82	1632.23
547.02	1658.85
547.22	1720.29
547.43	1708.01
547.63	1683.43
547.83	1722.34
548.03	1630.18
548.23	1728.49
548.44	1658.85
548.64	1673.19
548.84	1722.34
549.04	1638.38
549.24	1767.40
549.45	1826.79
549.65	1689.57
549.85	1738.73
550.05	1716.20
550.25	1572.84
550.45	1746.92
550.66	1746.92
550.86	1712.10
551.06	1665.00
551.26	1595.37
551.46	1675.24
551.66	1689.57
551.87	1757.16
552.07	1779.68
552.27	1728.49
552.47	1748.97
552.67	1697.77
552.87	1685.48
553.07	1681.38
553.28	1755.11
553.48	1726.44
553.68	1634.28
553.88	1726.44
554.08	1730.53
554.28	1671.14
554.48	1662.95
554.69	1642.47
554.89	1716.20
555.09	1642.47
555.29	1671.14
555.49	1703.91
555.69	1757.16
555.89	1724.39
556.10	1687.53
556.30	1617.90
556.50	1730.53
556.70	1681.38
556.90	1705.96
557.10	1763.30
557.30	1609.70
557.50	1662.95
557.70	1691.62
557.91	1640.42
558.11	1775.59
558.31	1742.82
558.51	1673.19
558.71	1753.06
558.91	1701.86
559.11	1628.14
559.31	1617.90
559.51	1687.53
559.72	1716.20
559.92	1673.19
560.12	1562.60
560.32	1798.12
560.52	1679.33
560.72	1697.77
560.92	1812.45
561.12	1718.25
561.32	1648.61
561.52	1564.65
561.72	1890.28
561.93	1736.68
562.13	1689.57
562.33	1648.61
562.53	1646.57
562.73	1667.05
562.93	1677.29
563.13	1722.34
563.33	1753.06
563.53	1726.44
563.73	1716.20
563.93	1705.96
564.13	1871.84
564.33	1732.58
564.53	1650.66
564.74	1673.19
564.94	1632.23
565.14	1652.71
565.34	1619.94
565.54	1701.86
565.74	1624.04
565.94	1705.96
566.14	1687.53
566.34	1685.48
566.54	1708.01
566.74	1781.73
566.94	1708.01
567.14	1683.43
567.34	1644.52
567.54	1681.38
567.74	1734.63
567.94	1607.66
568.14	1609.70
568.34	1818.60
568.54	1624.04
568.74	1675.24
568.94	1695.72
569.14	1830.88
569.34	1734.63
569.54	1611.75
569.75	1712.10
569.95	1748.97
570.15	1697.77
570.35	1681.38
570.55	1708.01
570.75	1671.14
570.95	1644.52
571.15	1708.01
571.35	1689.57
571.55	1738.73
571.75	1679.33
571.95	1626.09
572.15	1697.77
572.35	1697.77
572.55	1730.53
572.75	1640.42
572.95	1642.47
573.15	1697.77
573.35	1732.58
573.55	1708.01
573.75	1697.77
573.95	1863.65
574.15	1685.48
574.35	1810.40
574.55	1685.48
574.75	1644.52
574.95	1624.04
575.15	1701.86
575.34	1648.61
575.54	1708.01
575.74	1732.58
575.94	1667.05
576.14	1576.94
576.34	1732.58
576.54	1712.10
576.74	1781.73
576.94	1628.14
577.14	1691.62
577.34	1732.58
577.54	1634.28
577.74	1632.23
577.94	1742.82
578.14	1667.05
578.34	1751.01
578.54	1642.47
578.74	1679.33
578.94	1710.05
579.14	1726.44
579.34	1667.05
579.54	1724.39
579.74	1644.52
579.94	1615.85
580.13	1783.78
580.33	1757.16
580.53	1705.96
580.73	1695.72
580.93	1693.67
581.13	1566.70
581.33	1708.01
581.53	1765.35
581.73	1595.37
581.93	1578.98
582.13	1728.49
582.33	1667.05
582.53	1630.18
582.73	1738.73
582.92	1587.18
583.12	1683.43
583.32	1581.03
583.52	1781.73
583.72	1830.88
583.92	1714.15
584.12	1777.64
584.32	1736.68
584.52	1574.89
584.72	1679.33
584.92	1697.77
585.11	1699.81
585.31	1732.58
585.51	1650.66
585.71	1740.77
585.91	1785.83
586.11	1675.24
586.31	1683.43
586.51	1601.51
586.71	1634.28
586.91	1646.57
587.10	1673.19
587.30	1765.35
587.50	1632.23
587.70	1769.44
587.90	1732.58
588.10	1650.66
588.30	1722.34
588.50	1646.57
588.69	1658.85
588.89	1679.33
589.09	1728.49
589.29	1595.37
589.49	1681.38
589.69	1648.61
589.89	1744.87
590.08	1720.29
590.28	1644.52
590.48	1691.62
590.68	1765.35
590.88	1671.14
591.08	1728.49
591.28	1665.00
591.47	1646.57
591.67	1638.38
591.87	1726.44
592.07	1789.92
592.27	1630.18
592.47	1560.55
592.67	1695.72
592.86	1599.46
593.06	1738.73
593.26	1720.29
593.46	1738.73
593.66	1599.46
593.86	1765.35
594.05	1740.77
594.25	1695.72
594.45	1699.81
594.65	1800.16
594.85	1769.44
595.05	1699.81
595.24	1669.09
595.44	1753.06
595.64	1613.80
595.84	1691.62
596.04	1667.05
596.23	1708.01
596.43	1650.66
596.63	1687.53
596.83	1679.33
597.03	1791.97
597.22	1669.09
597.42	1732.58
597.62	1757.16
597.82	1740.77
598.02	1675.24
598.21	1654.76
598.41	1722.34
598.61	1728.49
598.81	1665.00
599.01	1755.11
599.20	1615.85
599.40	1621.99
599.60	1779.68
599.80	1679.33
600.00	1748.97
600.19	1757.16
600.39	1626.09
600.59	1714.15
600.79	1675.24
600.98	1699.81
601.18	1787.88
601.38	1708.01
601.58	1601.51
601.78	1689.57
601.97	1810.40
602.17	1736.68
602.37	1671.14
602.57	1748.97
602.76	1755.11
602.96	1626.09
603.16	1638.38
603.36	1716.20
603.55	1708.01
603.75	1740.77
603.95	1671.14
604.15	1744.87
604.34	1724.39
604.54	1695.72
604.74	1828.84
604.94	1732.58
605.13	1640.42
605.33	1654.76
605.53	1599.46
605.73	1755.11
605.92	1662.95
606.12	1681.38
606.32	1742.82
606.52	1763.30
606.71	1675.24
606.91	1689.57
607.11	1605.61
607.30	1654.76
607.50	1681.38
607.70	1757.16
607.90	1650.66
608.09	1658.85
608.29	1775.59
608.49	1720.29
608.68	1703.91
608.88	1665.00
609.08	1687.53
609.28	1673.19
609.47	1718.25
609.67	1691.62
609.87	1699.81
610.06	1642.47
610.26	1720.29
610.46	1699.81
610.66	1677.29
610.85	1613.80
611.05	1802.21
611.25	1607.66
611.44	1667.05
611.64	1699.81
611.84	1658.85
612.03	1705.96
612.23	1687.53
612.43	1763.30
612.62	1687.53
612.82	1734.63
613.02	1806.31
613.21	1724.39
613.41	1744.87
613.61	1648.61
613.80	1673.19
614.00	1660.90
614.20	1804.26
614.39	1722.34
614.59	1734.63
614.79	1654.76
614.98	1648.61
615.18	1673.19
615.38	1708.01
615.57	1619.94
615.77	1791.97
615.97	1591.27
616.16	1615.85
616.36	1755.11
616.56	1712.10
616.75	1652.71
616.95	1603.56
617.15	1783.78
617.34	1576.94
617.54	1761.25
617.74	1816.55
617.93	1757.16
618.13	1685.48
618.32	1689.57
618.52	1634.28
618.72	1701.86
618.91	1761.25
619.11	1740.77
619.31	1685.48
619.50	1654.76
619.70	1638.38
619.90	1699.81
620.09	1624.04
620.29	1697.77
620.48	1779.68
620.68	1705.96
620.88	1699.81
621.07	1759.21
621.27	1728.49
621.46	1767.40
621.66	1720.29
621.86	1697.77
622.05	1628.14
622.25	1910.75
622.44	1718.25
622.64	1693.67
622.84	1601.51
623.03	1607.66
623.23	1642.47
623.42	1632.23
623.62	1773.54
623.82	1748.97
624.01	1701.86
624.21	1689.57
624.40	1746.92
624.60	1624.04
624.80	1667.05
624.99	1800.16
625.19	1730.53
625.38	1705.96
625.58	1701.86
625.77	1703.91
625.97	1716.20
626.17	1646.57
626.36	1650.66
626.56	1679.33
626.75	1708.01
626.95	1673.19
627.14	1755.11
627.34	1673.19
627.54	1732.58
627.73	1771.49
627.93	1732.58
628.12	1759.21
628.32	1701.86
628.51	1632.23
628.71	1744.87
628.90	1746.92
629.10	1640.42
629.30	1726.44
629.49	1708.01
629.69	1669.09
629.88	1714.15
630.08	1837.03
630.27	1851.36
630.47	1689.57
630.66	1675.24
630.86	1732.58
631.05	1687.53
631.25	1671.14
631.44	1728.49
631.64	1775.59
631.84	1675.24
632.03	1755.11
632.23	1724.39
632.42	1669.09
632.62	1603.56
632.81	1644.52
633.01	1720.29
633.20	1830.88
633.40	1798.12
633.59	1679.33
633.79	1699.81
633.98	1669.09
634.18	1753.06
634.37	1738.73
634.57	1744.87
634.76	1611.75
634.96	1794.02
635.15	1828.84
635.35	1722.34
635.54	1658.85
635.74	1728.49
635.93	1617.90
636.13	1728.49
636.32	1769.44
636.52	1814.50
636.71	1669.09
636.91	1703.91
637.10	1748.97
637.30	1716.20
637.49	1632.23
637.69	1800.16
637.88	1724.39
638.08	1687.53
638.27	1652.71
638.46	1603.56
638.66	1640.42
638.85	1646.57
639.05	1712.10
639.24	1845.22
639.44	1783.78
639.63	1746.92
639.83	1724.39
640.02	1697.77
640.22	1683.43
640.41	1671.14
640.61	1691.62
640.80	1730.53
640.99	1744.87
641.19	1726.44
641.38	1753.06
641.58	1710.05
641.77	1714.15
641.97	1638.38
642.16	1617.90
642.36	1736.68
642.55	1703.91
642.74	1753.06
642.94	1691.62
643.13	1683.43
643.33	1685.48
643.52	1660.90
643.72	1753.06
643.91	1648.61
644.10	1742.82
644.30	1736.68
644.49	1802.21
644.69	1728.49
644.88	1638.38
645.08	1763.30
645.27	1748.97
645.46	1677.29
645.66	1806.31
645.85	1769.44
646.05	1695.72
646.24	1660.90
646.43	1605.61
646.63	1748.97
646.82	1710.05
647.02	1753.06
647.21	1847.27
647.40	1595.37
647.60	1632.23
647.79	1771.49
647.99	1628.14
648.18	1656.81
648.37	1806.31
648.57	1748.97
648.76	1687.53
648.96	1593.32
649.15	1687.53
649.34	1789.92
649.54	1697.77
649.73	1697.77
649.92	1693.67
650.12	1759.21
650.31	1753.06
650.51	1898.47
650.70	1691.62
650.89	1654.76
651.09	1738.73
651.28	1722.34
651.47	1621.99
651.67	1765.35
651.86	1845.22
652.06	1710.05
652.25	1728.49
652.44	1621.99
652.64	1705.96
652.83	1716.20
653.02	1679.33
653.22	1746.92
653.41	1626.09
653.60	1665.00
653.80	1624.04
653.99	1681.38
654.18	1621.99
654.38	1626.09
654.57	1796.07
654.76	1591.27
654.96	1738.73
655.15	1646.57
655.34	1722.34
655.54	1611.75
655.73	1669.09
655.92	1652.71
656.12	1675.24
656.31	1769.44
656.50	1830.88
656.70	1712.10
656.89	1697.77
657.08	1621.99
657.28	1767.40
657.47	1689.57
657.66	1652.71
657.86	1607.66
658.05	1720.29
658.24	1693.67
658.43	1757.16
658.63	1642.47
658.82	1816.55
659.01	1730.53
659.21	1765.35
659.40	1589.22
659.59	1677.29
659.79	1728.49
659.98	1814.50
660.17	1726.44
660.36	1646.57
660.56	1667.05
660.75	1722.34
660.94	1710.05
661.14	1683.43
661.33	1691.62
661.52	1654.76
661.71	1658.85
661.91	1675.24
662.10	1687.53
662.29	1658.85
662.49	1697.77
662.68	1601.51
662.87	1640.42
663.06	1744.87
663.26	1621.99
663.45	1843.17
663.64	1730.53
663.83	1699.81
664.03	1753.06
664.22	1634.28
664.41	1781.73
664.60	1777.64
664.80	1527.78
664.99	1787.88
665.18	1746.92
665.37	1744.87
665.57	1714.15
665.76	1708.01
665.95	1697.77
666.14	1728.49
666.34	1724.39
666.53	1693.67
666.72	1640.42
666.91	1679.33
667.11	1667.05
667.30	1859.56
667.49	1703.91
667.68	1798.12
667.87	1730.53
668.07	1691.62
668.26	1667.05
668.45	1613.80
668.64	1671.14
668.84	1744.87
669.03	1708.01
669.22	1785.83
669.41	1775.59
669.60	1613.80
669.80	1802.21
669.99	1695.72
670.18	1667.05
670.37	1877.99
670.57	1701.86
670.76	1716.20
670.95	1753.06
671.14	1662.95
671.33	1691.62
671.53	1742.82
671.72	1736.68
671.91	1773.54
672.10	1642.47
672.29	1691.62
672.48	1667.05
672.68	1740.77
672.87	1675.24
673.06	1730.53
673.25	1726.44
673.44	1695.72
673.64	1593.32
673.83	1732.58
674.02	1617.90
674.21	1789.92
674.40	1720.29
674.59	1708.01
674.79	1683.43
674.98	1734.63
675.17	1794.02
675.36	1593.32
675.55	1621.99
675.74	1628.14
675.94	1849.32
676.13	1722.34
676.32	1742.82
676.51	1662.95
676.70	1630.18
676.89	1683.43
677.08	1658.85
677.28	1857.51
677.47	1681.38
677.66	1730.53
677.85	1599.46
678.04	1687.53
678.23	1712.10
678.42	1667.05
678.62	1677.29
678.81	1656.81
679.00	1687.53
679.19	1763.30
679.38	1740.77
679.57	1673.19
679.76	1673.19
679.96	1642.47
680.15	1781.73
680.34	1609.70
680.53	1777.64
680.72	1763.30
680.91	1617.90
681.10	1642.47
681.29	1691.62
681.48	1738.73
681.68	1703.91
681.87	1832.93
682.06	1722.34
682.25	1742.82
682.44	1675.24
682.63	1759.21
682.82	1652.71
683.01	1773.54
683.20	1712.10
683.39	1800.16
683.59	1726.44
683.78	1675.24
683.97	1675.24
684.16	1660.90
684.35	1634.28
684.54	1789.92
684.73	1667.05
684.92	1640.42
685.11	1769.44
685.30	1722.34
685.49	1720.29
685.69	1787.88
685.88	1662.95
686.07	1673.19
686.26	1691.62
686.45	1687.53
686.64	1744.87
686.83	1716.20
687.02	1708.01
687.21	1789.92
687.40	1613.80
687.59	1847.27
687.78	1730.53
687.97	1755.11
688.16	1685.48
688.35	1656.81
688.54	1671.14
688.74	1474.54
688.93	1730.53
689.12	1769.44
689.31	1777.64
689.50	1718.25
689.69	1667.05
689.88	1662.95
690.07	1712.10
690.26	1732.58
690.45	1667.05
690.64	1722.34
690.83	1607.66
691.02	1658.85
691.21	1763.30
691.40	1642.47
691.59	1708.01
691.78	1820.64
691.97	1736.68
692.16	1687.53
692.35	1687.53
692.54	1773.54
692.73	1693.67
692.92	1798.12
693.11	1675.24
693.30	1728.49
693.49	1611.75
693.68	1794.02
693.87	1753.06
694.06	1673.19
694.25	1689.57
694.44	1732.58
694.63	1642.47
694.82	1597.42
695.01	1705.96
695.20	1656.81
695.39	1646.57
695.58	1636.33
695.77	1599.46
695.96	1671.14
696.15	1687.53
696.34	1667.05
696.53	1656.81
696.72	1722.34
696.91	1630.18
697.10	1660.90
697.29	1644.52
697.48	1796.07
697.67	1724.39
697.86	1648.61
698.05	1638.38
698.24	1675.24
698.43	1695.72
698.62	1634.28
698.81	1650.66
699.00	1736.68
699.19	1734.63
699.38	1683.43
699.57	1603.56
699.76	1716.20
699.95	1671.14
700.14	1638.38
700.32	1742.82
700.51	1585.13
700.70	1746.92
700.89	1861.60
701.08	1777.64
701.27	1595.37
701.46	1826.79
701.65	1769.44
701.84	1681.38
702.03	1691.62
702.22	1722.34
702.41	1730.53
702.60	1740.77
702.79	1703.91
702.98	1665.00
703.17	1744.87
703.35	1669.09
703.54	1802.21
703.73	1722.34
703.92	1728.49
704.11	1675.24
704.30	1771.49
704.49	1714.15
704.68	1615.85
704.87	1732.58
705.06	1814.50
705.25	1601.51
705.43	1615.85
705.62	1646.57
705.81	1796.07
706.00	1671.14
706.19	1724.39
706.38	1611.75
706.57	1822.69
706.76	1589.22
706.95	1771.49
707.14	1748.97
707.32	1716.20
707.51	1658.85
707.70	1683.43
707.89	1761.25
708.08	1689.57
708.27	1710.05
708.46	1722.34
708.65	1609.70
708.84	1755.11
709.02	1716.20
709.21	1564.65
709.40	1783.78
709.59	1679.33
709.78	1701.86
709.97	1615.85
710.16	1652.71
710.34	1632.23
710.53	1687.53
710.72	1667.05
710.91	1667.05
711.10	1587.18
711.29	1648.61
711.48	1671.14
711.66	1615.85
711.85	1671.14
712.04	1693.67
712.23	1628.14
712.42	1714.15
712.61	1828.84
712.80	1615.85
712.98	1701.86
713.17	1675.24
713.36	1751.01
713.55	1773.54
713.74	1728.49
713.93	1697.77
714.11	1751.01
714.30	1556.46
714.49	1708.01
714.68	1759.21
714.87	1564.65
715.06	1757.16
715.24	1662.95
715.43	1714.15
715.62	1681.38
715.81	1744.87
716.00	1634.28
716.18	1675.24
716.37	1787.88
716.56	1671.14
716.75	1720.29
716.94	1654.76
717.12	1761.25
717.31	1650.66
717.50	1642.47
717.69	1687.53
717.88	1718.25
718.06	1705.96
718.25	1732.58
718.44	1638.38
718.63	1755.11
718.82	1574.89
719.00	1665.00
719.19	1841.12
719.38	1613.80
719.57	1644.52
719.76	1681.38
719.94	1787.88
720.13	1599.46
720.32	1787.88
720.51	1677.29
720.69	1712.10
720.88	1732.58
721.07	1689.57
721.26	1761.25
721.44	1736.68
721.63	1734.63
721.82	1597.42
722.01	1748.97
722.20	1687.53
722.38	1757.16
722.57	1640.42
722.76	1695.72
722.95	1591.27
723.13	1636.33
723.32	1708.01
723.51	1695.72
723.70	1724.39
723.88	1755.11
724.07	1603.56
724.26	1777.64
724.44	1683.43
724.63	1814.50
724.82	1679.33
725.01	1675.24
725.19	1699.81
725.38	1708.01
725.57	1628.14
725.76	1734.63
725.94	1673.19
726.13	1773.54
726.32	1669.09
726.51	1679.33
726.69	1634.28
726.88	1693.67
727.07	1734.63
727.25	1691.62
727.44	1617.90
727.63	1607.66
727.82	1662.95
728.00	1673.19
728.19	1656.81
728.38	1683.43
728.56	1605.61
728.75	1708.01
728.94	1683.43
729.12	1699.81
729.31	1650.66
729.50	1642.47
729.69	1701.86
729.87	1662.95
730.06	1716.20
730.25	1716.20
730.43	1765.35
730.62	1662.95
730.81	1640.42
730.99	1722.34
731.18	1667.05
731.37	1665.00
731.55	1679.33
731.74	1759.21
731.93	1712.10
732.11	1687.53
732.30	1689.57
732.49	1708.01
732.67	1656.81
732.86	1662.95
733.05	1599.46
733.23	1720.29
733.42	1681.38
733.61	1658.85
733.79	1673.19
733.98	1691.62
734.17	1634.28
734.35	1742.82
734.54	1724.39
734.73	1708.01
734.91	1609.70
735.10	1654.76
735.29	1771.49
735.47	1601.51
735.66	1644.52
735.84	1751.01
736.03	1646.57
736.22	1734.63
736.40	1683.43
736.59	1603.56
736.78	1654.76
736.96	1665.00
737.15	1718.25
737.33	1726.44
737.52	1701.86
737.71	1720.29
737.89	1646.57
738.08	1689.57
738.27	1693.67
738.45	1708.01
738.64	1652.71
738.82	1646.57
739.01	1640.42
739.20	1650.66
739.38	1730.53
739.57	1755.11
739.75	1701.86
739.94	1667.05
740.13	1603.56
740.31	1683.43
740.50	1724.39
740.68	1644.52
740.87	1615.85
741.06	1697.77
741.24	1675.24
741.43	1669.09
741.61	1687.53
741.80	1646.57
741.99	1720.29
742.17	1761.25
742.36	1587.18
742.54	1642.47
742.73	1730.53
742.91	1642.47
743.10	1714.15
743.29	1761.25
743.47	1646.57
743.66	1589.22
743.84	1705.96
744.03	1679.33
744.21	1642.47
744.40	1720.29
744.59	1724.39
744.77	1640.42
744.96	1726.44
745.14	1712.10
745.33	1646.57
745.51	1689.57
745.70	1683.43
745.88	1740.77
746.07	1630.18
746.26	1605.61
746.44	1621.99
746.63	1613.80
746.81	1718.25
747.00	1699.81
747.18	1699.81
747.37	1572.84
747.55	1744.87
747.74	1953.76
747.92	1693.67
748.11	1681.38
748.29	1697.77
748.48	1753.06
748.66	1671.14
748.85	1689.57
749.03	1691.62
749.22	1624.04
749.41	1599.46
749.59	1703.91
749.78	1613.80
749.96	1564.65
750.15	1654.76
750.33	1613.80
750.52	1605.61
750.70	1695.72
750.89	1683.43
751.07	1699.81
751.26	1708.01
751.44	1658.85
751.63	1691.62
751.81	1695.72
752.00	1650.66
752.18	1753.06
752.37	1654.76
752.55	1638.38
752.74	1683.43
752.92	1699.81
753.10	1658.85
753.29	1636.33
753.47	1665.00
753.66	1542.12
753.84	1662.95
754.03	1591.27
754.21	1601.51
754.40	1701.86
754.58	1767.40
754.77	1757.16
754.95	1671.14
755.14	1615.85
755.32	1632.23
755.51	1517.54
755.69	1673.19
755.88	1634.28
756.06	1751.01
756.24	1617.90
756.43	1697.77
756.61	1685.48
756.80	1634.28
756.98	1673.19
757.17	1734.63
757.35	1685.48
757.54	1660.90
757.72	1632.23
757.90	1740.77
758.09	1693.67
758.27	1650.66
758.46	1673.19
758.64	1667.05
758.83	1730.53
759.01	1720.29
759.19	1765.35
759.38	1673.19
759.56	1650.66
759.75	1607.66
759.93	1744.87
760.12	1665.00
760.30	1679.33
760.48	1591.27
760.67	1603.56
760.85	1568.74
761.04	1658.85
761.22	1667.05
761.40	1660.90
761.59	1683.43
761.77	1615.85
761.96	1679.33
762.14	1671.14
762.32	1660.90
762.51	1626.09
762.69	1621.99
762.88	1785.83
763.06	1615.85
763.24	1650.66
763.43	1615.85
763.61	1665.00
763.80	1642.47
763.98	1781.73
764.16	1646.57
764.35	1632.23
764.53	1587.18
764.72	1697.77
764.90	1646.57
765.08	1642.47
765.27	1654.76
765.45	1624.04
765.63	1681.38
765.82	1656.81
766.00	1675.24
766.18	1642.47
766.37	1648.61
766.55	1681.38
766.74	1705.96
766.92	1609.70
767.10	1613.80
767.29	1777.64
767.47	1632.23
767.65	1658.85
767.84	1642.47
768.02	1769.44
768.20	1691.62
768.39	1652.71
768.57	1607.66
768.75	1687.53
768.94	1744.87
769.12	1656.81
769.30	1644.52
769.49	1697.77
769.67	1640.42
769.85	1871.84
770.04	1624.04
770.22	1599.46
770.40	1671.14
770.59	1675.24
770.77	1748.97
770.95	1708.01
771.14	1701.86
771.32	1695.72
771.50	1603.56
771.69	1609.70
771.87	1650.66
772.05	1605.61
772.24	1632.23
772.42	1763.30
772.60	1724.39
772.78	1705.96
772.97	1529.83
773.15	1683.43
773.33	1671.14
773.52	1601.51
773.70	1738.73
773.88	1779.68
774.07	1607.66
774.25	1675.24
774.43	1675.24
774.61	1673.19
774.80	1703.91
774.98	1693.67
775.16	1656.81
775.34	1685.48
775.53	1736.68
775.71	1714.15
775.89	1757.16
776.08	1624.04
776.26	1640.42
776.44	1712.10
776.62	1640.42
776.81	1640.42
776.99	1724.39
777.17	1708.01
777.35	1722.34
777.54	1730.53
777.72	1695.72
777.90	1624.04
778.08	1650.66
778.27	1701.86
778.45	1593.32
778.63	1679.33
778.81	1681.38
779.00	1724.39
779.18	1617.90
779.36	1673.19
779.54	1632.23
779.73	1660.90
779.91	1673.19
780.09	1597.42
780.27	1728.49
780.46	1683.43
780.64	1595.37
780.82	1630.18
781.00	1624.04
781.19	1628.14
781.37	1626.09
781.55	1722.34
781.73	1660.90
781.91	1626.09
782.10	1726.44
782.28	1699.81
782.46	1607.66
782.64	1667.05
782.82	1751.01
783.01	1669.09
783.19	1714.15
783.37	1673.19
783.55	1667.05
783.74	1687.53
783.92	1628.14
784.10	1695.72
784.28	1693.67
784.46	1658.85
784.64	1640.42
784.83	1691.62
785.01	1773.54
785.19	1771.49
785.37	1753.06
785.55	1665.00
785.74	1681.38
785.92	1648.61
786.10	1624.04
786.28	1830.88
786.46	1638.38
786.64	1650.66
786.83	1603.56
787.01	1738.73
787.19	1746.92
787.37	1683.43
787.55	1548.26
787.74	1718.25
787.92	1642.47
788.10	1699.81
788.28	1636.33
788.46	1648.61
788.64	1722.34
788.82	1712.10
789.01	1605.61
789.19	1683.43
789.37	1703.91
789.55	1650.66
789.73	1607.66
789.91	1669.09
790.09	1685.48
790.28	1578.98
790.46	1611.75
790.64	1689.57
790.82	1583.08
791.00	1658.85
791.18	1718.25
791.36	1691.62
791.55	1679.33
791.73	1626.09
791.91	1638.38
792.09	1650.66
792.27	1609.70
792.45	1662.95
792.63	1726.44
792.81	1613.80
793.00	1603.56
793.18	1705.96
793.36	1728.49
793.54	1738.73
793.72	1667.05
793.90	1660.90
794.08	1576.94
794.26	1712.10
794.44	1517.54
794.62	1636.33
794.81	1521.64
794.99	1671.14
795.17	1744.87
795.35	1568.74
795.53	1699.81
795.71	1697.77
795.89	1652.71
796.07	1710.05
796.25	1640.42
796.43	1718.25
796.61	1714.15
796.80	1630.18
796.98	1675.24
797.16	1650.66
797.34	1587.18
797.52	1599.46
797.70	1671.14
797.88	1791.97
798.06	1615.85
798.24	1744.87
798.42	1650.66
798.60	1699.81
798.78	1644.52
798.96	1765.35
799.14	1728.49
799.32	1740.77
799.51	1642.47
799.69	1695.72
799.87	1722.34
800.05	1695.72
800.23	1505.26
800.41	1654.76
800.59	1689.57
800.77	1605.61
800.95	1542.12
801.13	1687.53
801.31	1671.14
801.49	1710.05
801.67	1697.77
801.85	1658.85
802.03	1621.99
802.21	1636.33
802.39	1607.66
802.57	1665.00
802.75	1781.73
802.93	1757.16
803.11	1652.71
803.29	1630.18
803.47	1662.95
803.65	1638.38
803.83	1654.76
804.01	1578.98
804.19	1656.81
804.37	1658.85
804.55	1699.81
804.73	1667.05
804.91	1646.57
805.09	1640.42
805.27	1714.15
805.45	1583.08
805.63	1691.62
805.81	1605.61
805.99	1689.57
806.17	1689.57
806.35	1634.28
806.53	1681.38
806.71	1660.90
806.89	1601.51
807.07	1712.10
807.25	1759.21
807.43	1603.56
807.61	1738.73
807.79	1607.66
807.97	1708.01
808.15	1570.79
808.33	1665.00
808.51	1757.16
808.69	1642.47
808.87	1548.26
809.05	1583.08
809.23	1607.66
809.41	1570.79
809.59	1660.90
809.77	1748.97
809.95	1638.38
810.13	1708.01
810.31	1693.67
810.49	1748.97
810.67	1599.46
810.84	1652.71
811.02	1660.90
811.20	1562.60
811.38	1652.71
811.56	1677.29
811.74	1646.57
811.92	1624.04
812.10	1650.66
812.28	1730.53
812.46	1669.09
812.64	1736.68
812.82	1597.42
813.00	1738.73
813.18	1617.90
813.36	1648.61
813.53	1667.05
813.71	1691.62
813.89	1624.04
814.07	1615.85
814.25	1697.77
814.43	1634.28
814.61	1597.42
814.79	1728.49
814.97	1621.99
815.15	1697.77
815.33	1619.94
815.50	1658.85
815.68	1607.66
815.86	1634.28
816.04	1650.66
816.22	1660.90
816.40	1685.48
816.58	1654.76
816.76	1583.08
816.94	1673.19
817.11	1660.90
817.29	1644.52
817.47	1660.90
817.65	1644.52
817.83	1712.10
818.01	1593.32
818.19	1597.42
818.37	1671.14
818.54	1691.62
818.72	1697.77
818.90	1742.82
819.08	1626.09
819.26	1646.57
819.44	1728.49
819.62	1705.96
819.80	1634.28
819.97	1734.63
820.15	1648.61
820.33	1646.57
820.51	1583.08
820.69	1574.89
820.87	1671.14
821.05	1736.68
821.22	1591.27
821.40	1656.81
821.58	1708.01
821.76	1613.80
821.94	1634.28
822.12	1724.39
822.29	1724.39
822.47	1609.70
822.65	1593.32
822.83	1585.13
823.01	1716.20
823.19	1628.14
823.36	1615.85
823.54	1646.57
823.72	1644.52
823.90	1699.81
824.08	1576.94
824.25	1761.25
824.43	1656.81
824.61	1529.83
824.79	1675.24
824.97	1617.90
825.15	1712.10
825.32	1636.33
825.50	1740.77
825.68	1544.17
825.86	1656.81
826.04	1636.33
826.21	1740.77
826.39	1607.66
826.57	1583.08
826.75	1617.90
826.93	1650.66
827.10	1718.25
827.28	1683.43
827.46	1605.61
827.64	1705.96
827.81	1685.48
827.99	1683.43
828.17	1722.34
828.35	1607.66
828.53	1632.23
828.70	1626.09
828.88	1562.60
829.06	1605.61
829.24	1683.43
829.41	1665.00
829.59	1742.82
829.77	1593.32
829.95	1685.48
830.12	1564.65
830.30	1673.19
830.48	1683.43
830.66	1595.37
830.84	1644.52
831.01	1681.38
831.19	1566.70
831.37	1732.58
831.55	1667.05
831.72	1755.11
831.90	1683.43
832.08	1671.14
832.25	1636.33
832.43	1697.77
832.61	1687.53
832.79	1617.90
832.96	1699.81
833.14	1748.97
833.32	1722.34
833.50	1558.50
833.67	1605.61
833.85	1630.18
834.03	1601.51
834.20	1708.01
834.38	1746.92
834.56	1703.91
834.74	1693.67
834.91	1646.57
835.09	1646.57
835.27	1642.47
835.44	1677.29
835.62	1617.90
835.80	1517.54
835.98	1564.65
836.15	1767.40
836.33	1601.51
836.51	1617.90
836.68	1708.01
836.86	1607.66
837.04	1720.29
837.21	1794.02
837.39	1765.35
837.57	1705.96
837.75	1654.76
837.92	1656.81
838.10	1578.98
838.28	1599.46
838.45	1628.14
838.63	1630.18
838.81	1759.21
838.98	1677.29
839.16	1712.10
839.34	1634.28
839.51	1548.26
839.69	1642.47
839.87	1642.47
840.04	1660.90
840.22	2011.11
840.40	1617.90
840.57	1640.42
840.75	1677.29
840.93	1640.42
841.10	1667.05
841.28	1658.85
841.46	1658.85
841.63	1740.77
841.81	1589.22
841.98	1572.84
842.16	1777.64
842.34	1597.42
842.51	1476.59
842.69	1681.38
842.87	1619.94
843.04	1619.94
843.22	1562.60
843.40	1628.14
843.57	1603.56
843.75	1621.99
843.92	1662.95
844.10	1722.34
844.28	1701.86
844.45	1628.14
844.63	1699.81
844.81	1662.95
844.98	1722.34
845.16	1708.01
845.33	1613.80
845.51	1650.66
845.69	1714.15
845.86	1716.20
846.04	1581.03
846.21	1628.14
846.39	1656.81
846.57	1593.32
846.74	1560.55
846.92	1689.57
847.09	1609.70
847.27	1650.66
847.45	1667.05
847.62	1650.66
847.80	1619.94
847.97	1646.57
848.15	1642.47
848.32	1662.95
848.50	1599.46
848.68	1562.60
848.85	1630.18
849.03	1548.26
849.20	1607.66
849.38	1681.38
849.56	1646.57
849.73	1572.84
849.91	1667.05
850.08	1755.11
850.26	1527.78
850.43	1609.70
850.61	1673.19
850.78	1542.12
850.96	1673.19
851.14	1562.60
851.31	1808.36
851.49	1697.77
851.66	1671.14
851.84	1531.88
852.01	1708.01
852.19	1615.85
852.36	1669.09
852.54	1685.48
852.71	1605.61
852.89	1652.71
853.07	1644.52
853.24	1652.71
853.42	1632.23
853.59	1595.37
853.77	1675.24
853.94	1712.10
854.12	1796.07
854.29	1568.74
854.47	1646.57
854.64	1708.01
854.82	1720.29
854.99	1683.43
855.17	1662.95
855.34	1648.61
855.52	1658.85
855.69	1744.87
855.87	1574.89
856.04	1634.28
856.22	1689.57
856.39	1617.90
856.57	1591.27
856.74	1601.51
856.92	1685.48
857.09	1613.80
857.27	1550.31
857.44	1658.85
857.62	1755.11
857.79	1597.42
857.97	1728.49
858.14	1689.57
858.32	1607.66
858.49	1634.28
858.67	1675.24
858.84	1677.29
859.02	1689.57
859.19	1581.03
859.37	1585.13
859.54	1658.85
859.72	1609.70
859.89	1624.04
860.06	1591.27
860.24	1708.01
860.41	1726.44
860.59	1531.88
860.76	1654.76
860.94	1548.26
861.11	1613.80
861.29	1613.80
861.46	1630.18
861.64	1638.38
861.81	1699.81
861.98	1578.98
862.16	1644.52
862.33	1597.42
862.51	1550.31
862.68	1628.14
862.86	1677.29
863.03	1601.51
863.21	1593.32
863.38	1587.18
863.55	1621.99
863.73	1658.85
863.90	1705.96
864.08	1687.53
864.25	1697.77
864.43	1681.38
864.60	1574.89
864.77	1675.24
864.95	1689.57
865.12	1554.41
865.30	1767.40
865.47	1699.81
865.64	1714.15
865.82	1626.09
865.99	1718.25
866.17	1675.24
866.34	1712.10
866.51	1519.59
866.69	1691.62
866.86	1738.73
867.04	1738.73
867.21	1667.05
867.38	1621.99
867.56	1689.57
867.73	1728.49
867.91	1583.08
868.08	1578.98
868.25	1591.27
868.43	1675.24
868.60	1685.48
868.78	1621.99
868.95	1730.53
869.12	1708.01
869.30	1515.50
869.47	1656.81
869.64	1658.85
869.82	1654.76
869.99	1665.00
870.16	1697.77
870.34	1658.85
870.51	1716.20
870.69	1581.03
870.86	1640.42
871.03	1714.15
871.21	1624.04
871.38	1662.95
871.55	1705.96
871.73	1513.45
871.90	1720.29
872.07	1615.85
872.25	1535.98
872.42	1619.94
872.59	1574.89
872.77	1601.51
872.94	1546.22
873.11	1636.33
873.29	1746.92
873.46	1691.62
873.63	1576.94
873.81	1607.66
873.98	1648.61
874.15	1564.65
874.33	1568.74
874.50	1677.29
874.67	1708.01
874.85	1566.70
875.02	1701.86
875.19	1673.19
875.37	1744.87
875.54	1535.98
875.71	1701.86
875.88	1740.77
876.06	1617.90
876.23	1626.09
876.40	1669.09
876.58	1677.29
876.75	1689.57
876.92	1650.66
877.10	1621.99
877.27	1695.72
877.44	1701.86
877.61	1681.38
877.79	1705.96
877.96	1662.95
878.13	1681.38
878.31	1556.46
878.48	1581.03
878.65	1656.81
878.82	1656.81
879.00	1630.18
879.17	1724.39
879.34	1679.33
879.51	1599.46
879.69	1617.90
879.86	1511.40
880.03	1619.94
880.21	1624.04
880.38	1691.62
880.55	1728.49
880.72	1736.68
880.90	1621.99
881.07	1607.66
881.24	1699.81
881.41	1640.42
881.59	1636.33
881.76	1591.27
881.93	1695.72
882.10	1634.28
882.28	1712.10
882.45	1673.19
882.62	1646.57
882.79	1705.96
882.96	1568.74
883.14	1669.09
883.31	1677.29
883.48	1630.18
883.65	1626.09
883.83	1574.89
884.00	1634.28
884.17	1640.42
884.34	1703.91
884.51	1691.62
884.69	1654.76
884.86	1617.90
885.03	1648.61
885.20	1531.88
885.38	1677.29
885.55	1675.24
885.72	1687.53
885.89	1589.22
886.06	1736.68
886.24	1599.46
886.41	1617.90
886.58	1705.96
886.75	1669.09
886.92	1595.37
887.10	1605.61
887.27	1599.46
887.44	1761.25
887.61	1748.97
887.78	1689.57
887.95	1699.81
888.13	1595.37
888.30	1671.14
888.47	1714.15
888.64	1652.71
888.81	1656.81
888.99	1509.35
889.16	1574.89
889.33	1628.14
889.50	1748.97
889.67	1705.96
889.84	1607.66
890.01	1705.96
890.19	1716.20
890.36	1624.04
890.53	1665.00
890.70	1599.46
890.87	1718.25
891.04	1671.14
891.22	1636.33
891.39	1665.00
891.56	1630.18
891.73	1636.33
891.90	1630.18
892.07	1542.12
892.24	1679.33
892.42	1607.66
892.59	1640.42
892.76	1669.09
892.93	1609.70
893.10	1529.83
893.27	1697.77
893.44	1581.03
893.61	1619.94
893.79	1724.39
893.96	1644.52
894.13	1597.42
894.30	1581.03
894.47	1724.39
894.64	1718.25
894.81	1632.23
894.98	1658.85
895.15	1650.66
895.33	1648.61
895.50	1605.61
895.67	1595.37
895.84	1654.76
896.01	1642.47
896.18	1564.65
896.35	1720.29
896.52	1607.66
896.69	1619.94
896.86	1599.46
897.04	1701.86
897.21	1634.28
897.38	1669.09
897.55	1615.85
897.72	1669.09
897.89	1634.28
898.06	1773.54
898.23	1583.08
898.40	1640.42
898.57	1658.85
898.74	1650.66
898.91	1646.57
899.08	1595.37
899.26	1691.62
899.43	1748.97
899.60	1605.61
899.77	1675.24
899.94	1654.76
900.11	1617.90
900.28	1613.80
900.45	1652.71
900.62	1552.36
900.79	1609.70
900.96	1632.23
901.13	1654.76
901.30	1585.13
901.47	1556.46
901.64	1646.57
901.81	1759.21
901.98	1611.75
902.15	1656.81
902.32	1509.35
902.49	1642.47
902.66	1720.29
902.83	1691.62
903.01	1611.75
903.18	1630.18
903.35	1656.81
903.52	1724.39
903.69	1671.14
903.86	1658.85
904.03	1599.46
904.20	1746.92
904.37	1703.91
904.54	1550.31
904.71	1667.05
904.88	1642.47
905.05	1667.05
905.22	1646.57
905.39	1587.18
905.56	1601.51
905.73	1576.94
905.90	1597.42
906.07	1658.85
906.24	1658.85
906.41	1650.66
906.58	1697.77
906.75	1568.74
906.92	1609.70
907.09	1636.33
907.26	1673.19
907.43	1578.98
907.60	1626.09
907.77	1683.43
907.93	1697.77
908.10	1671.14
908.27	1740.77
908.44	1634.28
908.61	1554.41
908.78	1685.48
908.95	1728.49
909.12	1624.04
909.29	1624.04
909.46	1708.01
909.63	1710.05
909.80	1644.52
909.97	1665.00
910.14	1656.81
910.31	1626.09
910.48	1591.27
910.65	1601.51
910.82	1597.42
910.99	1587.18
911.16	1628.14
911.33	1640.42
911.50	1593.32
911.66	1576.94
911.83	1595.37
912.00	1648.61
912.17	1554.41
912.34	1581.03
912.51	1648.61
912.68	1652.71
912.85	1675.24
913.02	1648.61
913.19	1603.56
913.36	1628.14
913.53	1712.10
913.70	1634.28
913.86	1761.25
914.03	1609.70
914.20	1705.96
914.37	1615.85
914.54	1613.80
914.71	1714.15
914.88	1644.52
915.05	1613.80
915.22	1658.85
915.39	1632.23
915.55	1662.95
915.72	1585.13
915.89	1589.22
916.06	1667.05
916.23	1601.51
916.40	1720.29
916.57	1597.42
916.74	1677.29
916.91	1574.89
917.07	1591.27
917.24	1572.84
917.41	1644.52
917.58	1705.96
917.75	1576.94
917.92	1470.44
918.09	1513.45
918.26	1671.14
918.42	1599.46
918.59	1685.48
918.76	1613.80
918.93	1673.19
919.10	1593.32
919.27	1617.90
919.44	1759.21
919.60	1701.86
919.77	1619.94
919.94	1546.22
920.11	1675.24
920.28	1671.14
920.45	1550.31
920.61	1601.51
920.78	1648.61
920.95	1703.91
921.12	1685.48
921.29	1630.18
921.46	1564.65
921.62	1581.03
921.79	1642.47
921.96	1615.85
922.13	1665.00
922.30	1591.27
922.47	1654.76
922.63	1652.71
922.80	1585.13
922.97	1515.50
923.14	1505.26
923.31	1624.04
923.47	1617.90
923.64	1746.92
923.81	1667.05
923.98	1605.61
924.15	1597.42
924.32	1785.83
924.48	1644.52
924.65	1675.24
924.82	1581.03
924.99	1650.66
925.15	1503.21
925.32	1730.53
925.49	1566.70
925.66	1650.66
925.83	1595.37
925.99	1597.42
926.16	1736.68
926.33	1644.52
926.50	1527.78
926.67	1587.18
926.83	1560.55
927.00	1665.00
927.17	1650.66
927.34	1607.66
927.50	1687.53
927.67	1855.46
927.84	1761.25
928.01	1671.14
928.17	1636.33
928.34	1585.13
928.51	1597.42
928.68	1718.25
928.84	1650.66
929.01	1732.58
929.18	1587.18
929.35	1662.95
929.51	1667.05
929.68	1581.03
929.85	1667.05
930.02	1656.81
930.18	1601.51
930.35	1662.95
930.52	1617.90
930.69	1732.58
930.85	1701.86
931.02	1650.66
931.19	1566.70
931.36	1599.46
931.52	1703.91
931.69	1642.47
931.86	1562.60
932.02	1640.42
932.19	1648.61
932.36	1708.01
932.53	1640.42
932.69	1597.42
932.86	1697.77
933.03	1621.99
933.19	1544.17
933.36	1724.39
933.53	1728.49
933.70	1642.47
933.86	1724.39
934.03	1734.63
934.20	1544.17
934.36	1730.53
934.53	1548.26
934.70	1558.50
934.86	1689.57
935.03	1621.99
935.20	1705.96
935.36	1617.90
935.53	1591.27
935.70	1593.32
935.86	1687.53
936.03	1478.63
936.20	1605.61
936.36	1644.52
936.53	1550.31
936.70	1628.14
936.86	1779.68
937.03	1712.10
937.20	1609.70
937.36	1708.01
937.53	1540.07
937.70	1636.33
937.86	1634.28
938.03	1667.05
938.20	1746.92
938.36	1648.61
938.53	1652.71
938.70	1509.35
938.86	1665.00
939.03	1568.74
939.20	1560.55
939.36	1654.76
939.53	1673.19
939.70	1873.89
939.86	1591.27
940.03	1593.32
940.19	1568.74
940.36	1648.61
940.53	1699.81
940.69	1607.66
940.86	1691.62
941.03	1572.84
941.19	1566.70
941.36	1630.18
941.52	1679.33
941.69	1632.23
941.86	1667.05
942.02	1640.42
942.19	1699.81
942.35	1687.53
942.52	1617.90
942.69	1634.28
942.85	1658.85
943.02	1621.99
943.18	1722.34
943.35	1626.09
943.52	1654.76
943.68	1634.28
943.85	1671.14
944.01	1617.90
944.18	1593.32
944.35	1681.38
944.51	1578.98
944.68	1560.55
944.84	1632.23
945.01	1589.22
945.17	1650.66
945.34	1740.77
945.51	1624.04
945.67	1634.28
945.84	1595.37
946.00	1658.85
946.17	1673.19
946.33	1599.46
946.50	1687.53
946.67	1660.90
946.83	1626.09
947.00	1652.71
947.16	1611.75
947.33	1585.13
947.49	1624.04
947.66	1523.69
947.82	1718.25
947.99	1509.35
948.16	1628.14
948.32	1538.02
948.49	1671.14
948.65	1650.66
948.82	1644.52
948.98	1720.29
949.15	1583.08
949.31	1665.00
949.48	1630.18
949.64	1572.84
949.81	1607.66
949.97	1572.84
950.14	1640.42
950.30	1566.70
950.47	1607.66
950.63	1650.66
950.80	1697.77
950.96	1699.81
951.13	1712.10
951.30	1591.27
951.46	1689.57
951.63	1656.81
951.79	1703.91
951.96	1671.14
952.12	1527.78
952.29	1671.14
952.45	1634.28
952.62	1609.70
952.78	1695.72
952.94	1675.24
953.11	1572.84
953.27	1548.26
953.44	1720.29
953.60	1658.85
953.77	1683.43
953.93	1599.46
954.10	1679.33
954.26	1638.38
954.43	1568.74
954.59	1699.81
954.76	1716.20
954.92	1636.33
955.09	1560.55
955.25	1597.42
955.42	1540.07
955.58	1708.01
955.75	1568.74
955.91	1609.70
956.07	1578.98
956.24	1687.53
956.40	1638.38
956.57	1675.24
956.73	1619.94
956.90	1626.09
957.06	1626.09
957.23	1636.33
957.39	1540.07
957.56	1587.18
957.72	1564.65
957.88	1521.64
958.05	1720.29
958.21	1665.00
958.38	1572.84
958.54	1609.70
958.71	1673.19
958.87	1542.12
959.03	1642.47
959.20	1673.19
959.36	1615.85
959.53	1583.08
959.69	1552.36
959.85	1667.05
960.02	1523.69
960.18	1611.75
960.35	1681.38
960.51	1632.23
960.68	1603.56
960.84	1697.77
961.00	1572.84
961.17	1613.80
961.33	1615.85
961.50	1695.72
961.66	1665.00
961.82	1632.23
961.99	1734.63
962.15	1597.42
962.31	1585.13
962.48	1658.85
962.64	1687.53
962.81	1642.47
962.97	1636.33
963.13	1630.18
963.30	1626.09
963.46	1632.23
963.62	1581.03
963.79	1695.72
963.95	1638.38
964.12	1581.03
964.28	1687.53
964.44	1601.51
964.61	1722.34
964.77	1578.98
964.93	1748.97
965.10	1611.75
965.26	1570.79
965.42	1626.09
965.59	1572.84
965.75	1613.80
965.92	1681.38
966.08	1683.43
966.24	1601.51
966.41	1527.78
966.57	1654.76
966.73	1593.32
966.90	1642.47
967.06	1613.80
967.22	1615.85
967.39	1572.84
967.55	1576.94
967.71	1626.09
967.88	1662.95
968.04	1671.14
968.20	1556.46
968.37	1617.90
968.53	1632.23
968.69	1611.75
968.85	1634.28
969.02	1609.70
969.18	1689.57
969.34	1552.36
969.51	1728.49
969.67	1669.09
969.83	1615.85
970.00	1642.47
970.16	1576.94
970.32	1642.47
970.48	1740.77
970.65	1601.51
970.81	1576.94
970.97	1652.71
971.14	1503.21
971.30	1683.43
971.46	1591.27
971.63	1654.76
971.79	1701.86
971.95	1667.05
972.11	1570.79
972.28	1595.37
972.44	1650.66
972.60	1607.66
972.76	1675.24
972.93	1585.13
973.09	1703.91
973.25	1720.29
973.42	1650.66
973.58	1736.68
973.74	1699.81
973.90	1624.04
974.07	1652.71
974.23	1591.27
974.39	1607.66
974.55	1654.76
974.72	1673.19
974.88	1544.17
975.04	1689.57
975.20	1673.19
975.37	1734.63
975.53	1589.22
975.69	1691.62
975.85	1599.46
976.01	1626.09
976.18	1636.33
976.34	1572.84
976.50	1701.86
976.66	1705.96
976.83	1656.81
976.99	1597.42
977.15	1650.66
977.31	1533.93
977.47	1650.66
977.64	1556.46
977.80	1640.42
977.96	1638.38
978.12	1662.95
978.29	1683.43
978.45	1527.78
978.61	1665.00
978.77	1710.05
978.93	1564.65
979.10	1615.85
979.26	1683.43
979.42	1621.99
979.58	1552.36
979.74	1615.85
979.91	1630.18
980.07	1519.59
980.23	1636.33
980.39	1673.19
980.55	1607.66
980.71	1572.84
980.88	1562.60
981.04	1597.42
981.20	1572.84
981.36	1595.37
981.52	1540.07
981.68	1550.31
981.85	1562.60
982.01	1601.51
982.17	1621.99
982.33	1574.89
982.49	1740.77
982.65	1566.70
982.82	1621.99
982.98	1556.46
983.14	1544.17
983.30	1732.58
983.46	1654.76
983.62	1613.80
983.79	1636.33
983.95	1585.13
984.11	1531.88
984.27	1662.95
984.43	1667.05
984.59	1587.18
984.75	1691.62
984.91	1601.51
985.08	1605.61
985.24	1533.93
985.40	1554.41
985.56	1673.19
985.72	1617.90
985.88	1697.77
986.04	1599.46
986.20	1548.26
986.37	1671.14
986.53	1560.55
986.69	1613.80
986.85	1560.55
987.01	1624.04
987.17	1646.57
987.33	1581.03
987.49	1605.61
987.65	1673.19
987.82	1675.24
987.98	1599.46
988.14	1636.33
988.30	1591.27
988.46	1585.13
988.62	1656.81
988.78	1615.85
988.94	1607.66
989.10	1679.33
989.26	1611.75
989.42	1617.90
989.59	1548.26
989.75	1576.94
989.91	1685.48
990.07	1544.17
990.23	1615.85
990.39	1675.24
990.55	1609.70
990.71	1560.55
990.87	1646.57
991.03	1636.33
991.19	1560.55
991.35	1531.88
991.51	1601.51
991.67	1681.38
991.83	1613.80
992.00	1603.56
992.16	1626.09
992.32	1624.04
992.48	1691.62
992.64	1538.02
992.80	1679.33
992.96	1546.22
993.12	1591.27
993.28	1681.38
993.44	1591.27
993.60	1632.23
993.76	1593.32
993.92	1671.14
994.08	1656.81
994.24	1644.52
994.40	1681.38
994.56	1607.66
994.72	1599.46
994.88	1581.03
995.04	1650.66
995.20	1576.94
995.36	1591.27
995.52	1681.38
995.68	1630.18
995.84	1597.42
996.00	1697.77
996.16	1695.72
996.32	1556.46
996.48	1640.42
996.64	1650.66
996.80	1601.51
996.96	1638.38
997.12	1642.47
997.28	1552.36
997.44	1644.52
997.60	1535.98
997.76	1597.42
997.92	1658.85
998.08	1665.00
998.24	1550.31
998.40	1675.24
998.56	1708.01
998.72	1511.40
998.88	1587.18
999.04	1636.33
999.20	1720.29
999.36	1609.70
999.52	1710.05
999.68	1634.28
999.84	1597.42
1000.00	1665.00
1000.16	1720.29
1000.32	1591.27
1000.48	1798.12
1000.64	1568.74
1000.80	1456.11
1000.95	1607.66
1001.11	1654.76
1001.27	1519.59
1001.43	1636.33
1001.59	1503.21
1001.75	1548.26
1001.91	1681.38
1002.07	1621.99
1002.23	1667.05
1002.39	1574.89
1002.55	1607.66
1002.71	1630.18
1002.87	1585.13
1003.03	1568.74
1003.19	1617.90
1003.34	1701.86
1003.50	1595.37
1003.66	1638.38
1003.82	1665.00
1003.98	1591.27
1004.14	1624.04
1004.30	1562.60
1004.46	1617.90
1004.62	1556.46
1004.78	1597.42
1004.94	1681.38
1005.09	1667.05
1005.25	1691.62
1005.41	1556.46
1005.57	1544.17
1005.73	1607.66
1005.89	1574.89
1006.05	1640.42
1006.21	1654.76
1006.37	1648.61
1006.52	1617.90
1006.68	1533.93
1006.84	1736.68
1007.00	1624.04
1007.16	1736.68
1007.32	1552.36
1007.48	1587.18
1007.64	1589.22
1007.79	1595.37
1007.95	1570.79
1008.11	1630.18
1008.27	1656.81
1008.43	1658.85
1008.59	1576.94
1008.75	1658.85
1008.91	1589.22
1009.06	1572.84
1009.22	1630.18
1009.38	1607.66
1009.54	1665.00
1009.70	1609.70
1009.86	1566.70
1010.01	1654.76
1010.17	1611.75
1010.33	1632.23
1010.49	1591.27
1010.65	1667.05
1010.81	1634.28
1010.96	1628.14
1011.12	1548.26
1011.28	1609.70
1011.44	1675.24
1011.60	1615.85
1011.76	1673.19
1011.91	1658.85
1012.07	1589.22
1012.23	1521.64
1012.39	1572.84
1012.55	1648.61
1012.71	1611.75
1012.86	1583.08
1013.02	1589.22
1013.18	1617.90
1013.34	1572.84
1013.50	1634.28
1013.65	1615.85
1013.81	1624.04
1013.97	1654.76
1014.13	1658.85
1014.29	1570.79
1014.44	1724.39
1014.60	1615.85
1014.76	1613.80
1014.92	1699.81
1015.07	1609.70
1015.23	1638.38
1015.39	1550.31
1015.55	1511.40
1015.71	1576.94
1015.86	1552.36
1016.02	1531.88
1016.18	1527.78
1016.34	1589.22
1016.49	1611.75
1016.65	1642.47
1016.81	1605.61
1016.97	1634.28
1017.12	1689.57
1017.28	1638.38
1017.44	1490.92
1017.60	1540.07
1017.75	1624.04
1017.91	1581.03
1018.07	1572.84
1018.23	1585.13
1018.38	1638.38
1018.54	1646.57
1018.70	1611.75
1018.86	1581.03
1019.01	1607.66
1019.17	1644.52
1019.33	1628.14
1019.49	1632.23
1019.64	1665.00
1019.80	1619.94
1019.96	1636.33
1020.12	1587.18
1020.27	1677.29
1020.43	1572.84
1020.59	1640.42
1020.74	1679.33
1020.90	1626.09
1021.06	1611.75
1021.22	1640.42
1021.37	1632.23
1021.53	1523.69
1021.69	1652.71
1021.84	1574.89
1022.00	1583.08
1022.16	1564.65
1022.31	1591.27
1022.47	1589.22
1022.63	1626.09
1022.79	1521.64
1022.94	1656.81
1023.10	1748.97
1023.26	1544.17
1023.41	1617.90
1023.57	1589.22
1023.73	1609.70
1023.88	1642.47
1024.04	1531.88
1024.20	1607.66
1024.35	1605.61
1024.51	1716.20
1024.67	1564.65
1024.82	1701.86
1024.98	1540.07
1025.14	1642.47
1025.29	1626.09
1025.45	1628.14
1025.61	1554.41
1025.76	1615.85
1025.92	1669.09
1026.08	1667.05
1026.23	1576.94
1026.39	1679.33
1026.55	1574.89
1026.70	1644.52
1026.86	1654.76
1027.02	1648.61
1027.17	1642.47
1027.33	1675.24
1027.48	1601.51
1027.64	1554.41
1027.80	1593.32
1027.95	1650.66
1028.11	1556.46
1028.27	1648.61
1028.42	1599.46
1028.58	1642.47
1028.73	1562.60
1028.89	1458.15
1029.05	1646.57
1029.20	1675.24
>>>>>End Processed Spectral Data<<<<<
