SpectraSuite Data File
++++++++++++++++++++++++++++++++++++
Date: Fri Jun 02 14:52:22 CEST 2017
User: INFO_000
Dark Spectrum Present: No
Reference Spectrum Present: No
Number of Sampled Component Spectra: 1
Spectrometers: USB4H00879
Integration Time (usec): 80000 (USB4H00879)
Spectra Averaged: 1 (USB4H00879)
Boxcar Smoothing: 0 (USB4H00879)
Correct for Electrical Dark: No (USB4H00879)
Strobe/Lamp Enabled: No (USB4H00879)
Correct for Detector Non-linearity: No (USB4H00879)
Correct for Stray Light: No (USB4H00879)
Number of Pixels in Processed Spectrum: 3648
>>>>>Begin Processed Spectral Data<<<<<
345.13	1265.64
345.34	1265.64
345.56	1265.64
345.78	1249.26
345.99	1255.40
346.21	1767.40
346.42	1763.30
346.64	1660.90
346.86	1744.87
347.07	1607.66
347.29	1759.21
347.50	1609.70
347.72	1665.00
347.94	1714.15
348.15	1652.71
348.37	1609.70
348.59	1697.77
348.80	1703.91
349.02	1681.38
349.23	1757.16
349.45	1677.29
349.67	1744.87
349.88	1652.71
350.10	1806.31
350.31	1730.53
350.53	1681.38
350.75	1765.35
350.96	1648.61
351.18	1716.20
351.39	1748.97
351.61	1634.28
351.82	1724.39
352.04	1822.69
352.26	1722.34
352.47	1712.10
352.69	1794.02
352.90	1597.42
353.12	1712.10
353.34	1665.00
353.55	1845.22
353.77	1730.53
353.98	1687.53
354.20	1699.81
354.41	1796.07
354.63	1806.31
354.85	1859.56
355.06	1753.06
355.28	1587.18
355.49	1660.90
355.71	1691.62
355.92	1720.29
356.14	1767.40
356.35	1677.29
356.57	1705.96
356.79	1759.21
357.00	1669.09
357.22	1746.92
357.43	1691.62
357.65	1765.35
357.86	1650.66
358.08	1716.20
358.29	1728.49
358.51	1763.30
358.72	1757.16
358.94	1736.68
359.16	1755.11
359.37	1789.92
359.59	1728.49
359.80	1748.97
360.02	1734.63
360.23	1714.15
360.45	1818.60
360.66	1658.85
360.88	1621.99
361.09	1628.14
361.31	1773.54
361.52	1751.01
361.74	1785.83
361.95	1855.46
362.17	1738.73
362.38	1826.79
362.60	1781.73
362.81	1699.81
363.03	1656.81
363.24	1636.33
363.46	1712.10
363.67	1716.20
363.89	1794.02
364.10	1642.47
364.32	1646.57
364.53	1781.73
364.75	1587.18
364.96	1712.10
365.18	1771.49
365.39	1777.64
365.61	1665.00
365.82	1826.79
366.04	1712.10
366.25	1621.99
366.47	1712.10
366.68	1685.48
366.90	1738.73
367.11	1699.81
367.33	1781.73
367.54	1746.92
367.76	1699.81
367.97	1785.83
368.19	1730.53
368.40	1738.73
368.62	1605.61
368.83	1634.28
369.05	1751.01
369.26	1658.85
369.48	1634.28
369.69	1669.09
369.91	1699.81
370.12	1740.77
370.33	1798.12
370.55	1587.18
370.76	1724.39
370.98	1748.97
371.19	1724.39
371.41	1679.33
371.62	1673.19
371.84	1665.00
372.05	1753.06
372.27	1581.03
372.48	1632.23
372.69	1689.57
372.91	1748.97
373.12	1837.03
373.34	1667.05
373.55	1767.40
373.77	1767.40
373.98	1638.38
374.20	1724.39
374.41	1806.31
374.62	1697.77
374.84	1691.62
375.05	1798.12
375.27	1724.39
375.48	1642.47
375.70	1724.39
375.91	1781.73
376.12	1748.97
376.34	1689.57
376.55	1642.47
376.77	1716.20
376.98	1687.53
377.19	1685.48
377.41	1685.48
377.62	1701.86
377.84	1746.92
378.05	1716.20
378.27	1654.76
378.48	1849.32
378.69	1820.64
378.91	1834.98
379.12	1767.40
379.34	1662.95
379.55	1761.25
379.76	1730.53
379.98	1654.76
380.19	1716.20
380.41	1755.11
380.62	1722.34
380.83	1693.67
381.05	1691.62
381.26	1841.12
381.47	1607.66
381.69	1675.24
381.90	1810.40
382.12	1808.36
382.33	1689.57
382.54	1781.73
382.76	1712.10
382.97	1716.20
383.19	1581.03
383.40	1726.44
383.61	1675.24
383.83	1660.90
384.04	1716.20
384.25	1685.48
384.47	1781.73
384.68	1654.76
384.89	1660.90
385.11	1656.81
385.32	1720.29
385.54	1619.94
385.75	1654.76
385.96	1728.49
386.18	1761.25
386.39	1732.58
386.60	1615.85
386.82	1759.21
387.03	1630.18
387.24	1744.87
387.46	1705.96
387.67	1677.29
387.88	1775.59
388.10	1740.77
388.31	1685.48
388.52	1775.59
388.74	1718.25
388.95	1619.94
389.16	1740.77
389.38	1624.04
389.59	1697.77
389.80	1816.55
390.02	1669.09
390.23	1734.63
390.44	1642.47
390.66	1677.29
390.87	1603.56
391.08	1638.38
391.30	1791.97
391.51	1683.43
391.72	1781.73
391.94	1755.11
392.15	1648.61
392.36	1662.95
392.58	1689.57
392.79	1689.57
393.00	1712.10
393.22	1810.40
393.43	1757.16
393.64	1775.59
393.85	1781.73
394.07	1603.56
394.28	1630.18
394.49	1673.19
394.71	1818.60
394.92	1779.68
395.13	1732.58
395.35	1665.00
395.56	1687.53
395.77	1738.73
395.98	1660.90
396.20	1728.49
396.41	1705.96
396.62	1773.54
396.84	1699.81
397.05	1697.77
397.26	1697.77
397.47	1796.07
397.69	1638.38
397.90	1845.22
398.11	1830.88
398.32	1673.19
398.54	1699.81
398.75	1667.05
398.96	1630.18
399.18	1812.45
399.39	1691.62
399.60	1767.40
399.81	1628.14
400.03	1589.22
400.24	1916.90
400.45	1753.06
400.66	1679.33
400.88	1578.98
401.09	1929.19
401.30	1665.00
401.51	1787.88
401.73	1787.88
401.94	1667.05
402.15	1646.57
402.36	1787.88
402.58	1814.50
402.79	1673.19
403.00	1679.33
403.21	1841.12
403.43	1748.97
403.64	1757.16
403.85	1703.91
404.06	1781.73
404.27	1634.28
404.49	1691.62
404.70	1699.81
404.91	1699.81
405.12	1804.26
405.34	1748.97
405.55	1839.08
405.76	1599.46
405.97	1720.29
406.19	1839.08
406.40	1617.90
406.61	1724.39
406.82	1718.25
407.03	1673.19
407.25	1742.82
407.46	1789.92
407.67	1679.33
407.88	1687.53
408.09	1746.92
408.31	1638.38
408.52	1763.30
408.73	1746.92
408.94	1656.81
409.15	1636.33
409.37	1730.53
409.58	1834.98
409.79	1669.09
410.00	1720.29
410.21	1714.15
410.43	1699.81
410.64	1675.24
410.85	1675.24
411.06	1679.33
411.27	1722.34
411.48	1810.40
411.70	1716.20
411.91	1773.54
412.12	1728.49
412.33	1720.29
412.54	1673.19
412.76	1695.72
412.97	1851.36
413.18	1578.98
413.39	1800.16
413.60	1767.40
413.81	1771.49
414.03	1654.76
414.24	1685.48
414.45	1845.22
414.66	1583.08
414.87	1630.18
415.08	1716.20
415.30	1683.43
415.51	1742.82
415.72	1689.57
415.93	1710.05
416.14	1757.16
416.35	1660.90
416.56	1796.07
416.78	1740.77
416.99	1730.53
417.20	1695.72
417.41	1802.21
417.62	1732.58
417.83	1724.39
418.04	1736.68
418.26	1804.26
418.47	1718.25
418.68	1740.77
418.89	1748.97
419.10	1843.17
419.31	1773.54
419.52	1724.39
419.73	1800.16
419.95	1712.10
420.16	1732.58
420.37	1660.90
420.58	1763.30
420.79	1591.27
421.00	1705.96
421.21	1685.48
421.42	1619.94
421.63	1718.25
421.85	1703.91
422.06	1640.42
422.27	1667.05
422.48	1689.57
422.69	1710.05
422.90	1624.04
423.11	1658.85
423.32	1820.64
423.53	1785.83
423.75	1687.53
423.96	1789.92
424.17	1781.73
424.38	1822.69
424.59	1705.96
424.80	1650.66
425.01	1671.14
425.22	1613.80
425.43	1744.87
425.64	1816.55
425.85	1849.32
426.06	1703.91
426.28	1716.20
426.49	1621.99
426.70	1617.90
426.91	1689.57
427.12	1708.01
427.33	1699.81
427.54	1677.29
427.75	1679.33
427.96	1703.91
428.17	1777.64
428.38	1642.47
428.59	1759.21
428.80	1740.77
429.01	1671.14
429.23	1673.19
429.44	1693.67
429.65	1695.72
429.86	1734.63
430.07	1693.67
430.28	1628.14
430.49	1742.82
430.70	1697.77
430.91	1740.77
431.12	1624.04
431.33	1705.96
431.54	1828.84
431.75	1718.25
431.96	1675.24
432.17	1736.68
432.38	1781.73
432.59	1757.16
432.80	1765.35
433.01	1714.15
433.22	1677.29
433.43	1767.40
433.64	1677.29
433.85	1740.77
434.06	1689.57
434.27	1675.24
434.49	1685.48
434.70	1712.10
434.91	1771.49
435.12	1660.90
435.33	1673.19
435.54	1810.40
435.75	1591.27
435.96	1681.38
436.17	1761.25
436.38	1718.25
436.59	1691.62
436.80	1617.90
437.01	1712.10
437.22	1783.78
437.43	1740.77
437.64	1609.70
437.85	1742.82
438.06	1746.92
438.27	1712.10
438.48	1738.73
438.69	1728.49
438.90	1636.33
439.11	1712.10
439.32	1763.30
439.53	1603.56
439.74	1683.43
439.95	1607.66
440.16	1646.57
440.37	1710.05
440.57	1621.99
440.78	1624.04
440.99	1716.20
441.20	1691.62
441.41	1656.81
441.62	1609.70
441.83	1687.53
442.04	1583.08
442.25	1652.71
442.46	1581.03
442.67	1669.09
442.88	1804.26
443.09	1681.38
443.30	1681.38
443.51	1640.42
443.72	1669.09
443.93	1611.75
444.14	1769.44
444.35	1615.85
444.56	1712.10
444.77	1648.61
444.98	1710.05
445.19	1654.76
445.40	1695.72
445.61	1646.57
445.81	1683.43
446.02	1798.12
446.23	1646.57
446.44	1599.46
446.65	1617.90
446.86	1777.64
447.07	1867.75
447.28	1679.33
447.49	1691.62
447.70	1662.95
447.91	1699.81
448.12	1624.04
448.33	1812.45
448.54	1718.25
448.74	1689.57
448.95	1685.48
449.16	1708.01
449.37	1755.11
449.58	1703.91
449.79	1724.39
450.00	1648.61
450.21	1615.85
450.42	1695.72
450.63	1716.20
450.84	1667.05
451.05	1689.57
451.25	1710.05
451.46	1644.52
451.67	1800.16
451.88	1701.86
452.09	1658.85
452.30	1640.42
452.51	1611.75
452.72	1748.97
452.93	1802.21
453.13	1714.15
453.34	1646.57
453.55	1746.92
453.76	1681.38
453.97	1697.77
454.18	1644.52
454.39	1761.25
454.60	1720.29
454.81	1806.31
455.01	1724.39
455.22	1593.32
455.43	1697.77
455.64	1693.67
455.85	1810.40
456.06	1777.64
456.27	1757.16
456.48	1636.33
456.68	1697.77
456.89	1789.92
457.10	1738.73
457.31	1779.68
457.52	1771.49
457.73	1650.66
457.94	1773.54
458.14	1548.26
458.35	1703.91
458.56	1613.80
458.77	1734.63
458.98	1675.24
459.19	1644.52
459.39	1753.06
459.60	1689.57
459.81	1691.62
460.02	1701.86
460.23	1695.72
460.44	1697.77
460.65	1671.14
460.85	1601.51
461.06	1683.43
461.27	1763.30
461.48	1630.18
461.69	1556.46
461.89	1566.70
462.10	1650.66
462.31	1609.70
462.52	1605.61
462.73	1642.47
462.94	1744.87
463.14	1673.19
463.35	1640.42
463.56	1839.08
463.77	1724.39
463.98	1587.18
464.18	1652.71
464.39	1761.25
464.60	1722.34
464.81	1597.42
465.02	1708.01
465.23	1638.38
465.43	1615.85
465.64	1679.33
465.85	1646.57
466.06	1697.77
466.27	1734.63
466.47	1646.57
466.68	1757.16
466.89	1636.33
467.10	1638.38
467.30	1689.57
467.51	1761.25
467.72	1783.78
467.93	1589.22
468.14	1621.99
468.34	1720.29
468.55	1681.38
468.76	1726.44
468.97	1705.96
469.17	1728.49
469.38	1822.69
469.59	1699.81
469.80	1714.15
470.01	1787.88
470.21	1695.72
470.42	1691.62
470.63	1810.40
470.84	1771.49
471.04	1654.76
471.25	1781.73
471.46	1746.92
471.67	1787.88
471.87	1691.62
472.08	1748.97
472.29	1660.90
472.50	1769.44
472.70	1773.54
472.91	1683.43
473.12	1583.08
473.33	1665.00
473.53	1718.25
473.74	1648.61
473.95	1658.85
474.16	1581.03
474.36	1667.05
474.57	1738.73
474.78	1689.57
474.99	1724.39
475.19	1693.67
475.40	1652.71
475.61	1722.34
475.81	1679.33
476.02	1673.19
476.23	1738.73
476.44	1675.24
476.64	1677.29
476.85	1640.42
477.06	1695.72
477.27	1689.57
477.47	1742.82
477.68	1769.44
477.89	1724.39
478.09	1734.63
478.30	1624.04
478.51	1624.04
478.71	1630.18
478.92	1712.10
479.13	1697.77
479.34	1665.00
479.54	1763.30
479.75	1652.71
479.96	1697.77
480.16	1695.72
480.37	1679.33
480.58	1673.19
480.78	1804.26
480.99	1646.57
481.20	1677.29
481.41	1722.34
481.61	1740.77
481.82	1755.11
482.03	1642.47
482.23	1644.52
482.44	1753.06
482.65	1806.31
482.85	1771.49
483.06	1773.54
483.27	1695.72
483.47	1769.44
483.68	1716.20
483.89	1691.62
484.09	1724.39
484.30	1734.63
484.51	1804.26
484.71	1597.42
484.92	1601.51
485.13	1744.87
485.33	1656.81
485.54	1738.73
485.75	1777.64
485.95	1648.61
486.16	1669.09
486.37	1679.33
486.57	1699.81
486.78	1617.90
486.98	1722.34
487.19	1650.66
487.40	1730.53
487.60	1679.33
487.81	1652.71
488.02	1507.30
488.22	1642.47
488.43	1820.64
488.64	1624.04
488.84	1646.57
489.05	1699.81
489.25	1662.95
489.46	1708.01
489.67	1740.77
489.87	1705.96
490.08	1613.80
490.29	1624.04
490.49	1806.31
490.70	1677.29
490.90	1662.95
491.11	1679.33
491.32	1650.66
491.52	1693.67
491.73	1648.61
491.94	1685.48
492.14	1609.70
492.35	1679.33
492.55	1697.77
492.76	1658.85
492.97	1636.33
493.17	1699.81
493.38	1720.29
493.58	1834.98
493.79	1695.72
494.00	1708.01
494.20	1646.57
494.41	1787.88
494.61	1705.96
494.82	1669.09
495.02	1619.94
495.23	1755.11
495.44	1705.96
495.64	1738.73
495.85	1665.00
496.05	1724.39
496.26	1679.33
496.47	1724.39
496.67	1683.43
496.88	1724.39
497.08	1621.99
497.29	1642.47
497.49	1759.21
497.70	1681.38
497.91	1673.19
498.11	1812.45
498.32	1687.53
498.52	1771.49
498.73	1689.57
498.93	1781.73
499.14	1765.35
499.34	1787.88
499.55	1748.97
499.76	1642.47
499.96	1714.15
500.17	1718.25
500.37	1781.73
500.58	1667.05
500.78	1746.92
500.99	1646.57
501.19	1648.61
501.40	1796.07
501.60	1593.32
501.81	1726.44
502.02	1748.97
502.22	1583.08
502.43	1777.64
502.63	1867.75
502.84	1687.53
503.04	1734.63
503.25	1728.49
503.45	1726.44
503.66	1683.43
503.86	1746.92
504.07	1720.29
504.27	1642.47
504.48	1708.01
504.68	1761.25
504.89	1884.13
505.09	1540.07
505.30	1609.70
505.50	1658.85
505.71	1734.63
505.91	1757.16
506.12	1693.67
506.32	1689.57
506.53	1605.61
506.73	1605.61
506.94	1732.58
507.14	1703.91
507.35	1828.84
507.55	1722.34
507.76	1691.62
507.96	1740.77
508.17	1738.73
508.37	1679.33
508.58	1773.54
508.78	1753.06
508.99	1796.07
509.19	1697.77
509.40	1695.72
509.60	1771.49
509.81	1812.45
510.01	1675.24
510.22	1656.81
510.42	1701.86
510.63	1751.01
510.83	1652.71
511.04	1703.91
511.24	1781.73
511.44	1644.52
511.65	1650.66
511.85	1660.90
512.06	1681.38
512.26	1679.33
512.47	1712.10
512.67	1712.10
512.88	1779.68
513.08	1658.85
513.29	1757.16
513.49	1646.57
513.69	1650.66
513.90	1646.57
514.10	1789.92
514.31	1701.86
514.51	1703.91
514.72	1691.62
514.92	1781.73
515.13	1691.62
515.33	1642.47
515.53	1630.18
515.74	1732.58
515.94	1642.47
516.15	1705.96
516.35	1595.37
516.56	1619.94
516.76	1628.14
516.96	1679.33
517.17	1751.01
517.37	1785.83
517.58	1667.05
517.78	1673.19
517.99	1744.87
518.19	1814.50
518.39	1662.95
518.60	1757.16
518.80	1667.05
519.01	1787.88
519.21	1617.90
519.41	1738.73
519.62	1617.90
519.82	1740.77
520.03	1687.53
520.23	1728.49
520.43	1615.85
520.64	1847.27
520.84	1748.97
521.05	1681.38
521.25	1730.53
521.45	1671.14
521.66	1662.95
521.86	1724.39
522.07	1673.19
522.27	1673.19
522.47	1615.85
522.68	1722.34
522.88	1751.01
523.08	1724.39
523.29	1626.09
523.49	1673.19
523.70	1630.18
523.90	1656.81
524.10	1677.29
524.31	1630.18
524.51	1576.94
524.71	1736.68
524.92	1804.26
525.12	1585.13
525.33	1744.87
525.53	1708.01
525.73	1804.26
525.94	1667.05
526.14	1746.92
526.34	1650.66
526.55	1761.25
526.75	1640.42
526.95	1794.02
527.16	1687.53
527.36	1691.62
527.56	1675.24
527.77	1617.90
527.97	1685.48
528.17	1683.43
528.38	1708.01
528.58	1630.18
528.78	1673.19
528.99	1646.57
529.19	1613.80
529.39	1630.18
529.60	1591.27
529.80	1671.14
530.00	1601.51
530.21	1746.92
530.41	1630.18
530.61	1779.68
530.82	1576.94
531.02	1699.81
531.22	1679.33
531.43	1716.20
531.63	1716.20
531.83	1794.02
532.04	1665.00
532.24	1660.90
532.44	1712.10
532.64	1751.01
532.85	1636.33
533.05	1640.42
533.25	1687.53
533.46	1693.67
533.66	1738.73
533.86	1595.37
534.07	1796.07
534.27	1646.57
534.47	1785.83
534.67	1757.16
534.88	1720.29
535.08	1728.49
535.28	1708.01
535.49	1587.18
535.69	1771.49
535.89	1777.64
536.09	1742.82
536.30	1695.72
536.50	1669.09
536.70	1791.97
536.91	1642.47
537.11	1759.21
537.31	1691.62
537.51	1630.18
537.72	1634.28
537.92	1699.81
538.12	1742.82
538.32	1742.82
538.53	1732.58
538.73	1687.53
538.93	1652.71
539.13	1777.64
539.34	1732.58
539.54	1624.04
539.74	1748.97
539.94	1658.85
540.15	1763.30
540.35	1624.04
540.55	1652.71
540.75	1687.53
540.96	1642.47
541.16	1679.33
541.36	1656.81
541.56	1724.39
541.77	1789.92
541.97	1705.96
542.17	1658.85
542.37	1738.73
542.58	1708.01
542.78	1720.29
542.98	1642.47
543.18	1699.81
543.38	1701.86
543.59	1748.97
543.79	1599.46
543.99	1611.75
544.19	1736.68
544.40	1712.10
544.60	1675.24
544.80	1675.24
545.00	1597.42
545.20	1742.82
545.41	1759.21
545.61	1671.14
545.81	1675.24
546.01	1773.54
546.21	1687.53
546.42	1798.12
546.62	1728.49
546.82	1675.24
547.02	1642.47
547.22	1767.40
547.43	1683.43
547.63	1697.77
547.83	1658.85
548.03	1583.08
548.23	1748.97
548.44	1630.18
548.64	1693.67
548.84	1681.38
549.04	1624.04
549.24	1773.54
549.45	1843.17
549.65	1656.81
549.85	1693.67
550.05	1712.10
550.25	1548.26
550.45	1814.50
550.66	1746.92
550.86	1656.81
551.06	1718.25
551.26	1634.28
551.46	1753.06
551.66	1761.25
551.87	1681.38
552.07	1646.57
552.27	1650.66
552.47	1732.58
552.67	1640.42
552.87	1722.34
553.07	1669.09
553.28	1644.52
553.48	1781.73
553.68	1576.94
553.88	1697.77
554.08	1658.85
554.28	1695.72
554.48	1673.19
554.69	1673.19
554.89	1718.25
555.09	1634.28
555.29	1587.18
555.49	1789.92
555.69	1658.85
555.89	1744.87
556.10	1695.72
556.30	1675.24
556.50	1673.19
556.70	1818.60
556.90	1667.05
557.10	1730.53
557.30	1689.57
557.50	1689.57
557.70	1716.20
557.91	1689.57
558.11	1609.70
558.31	1779.68
558.51	1691.62
558.71	1658.85
558.91	1728.49
559.11	1566.70
559.31	1591.27
559.51	1695.72
559.72	1695.72
559.92	1642.47
560.12	1613.80
560.32	1769.44
560.52	1796.07
560.72	1662.95
560.92	1751.01
561.12	1701.86
561.32	1699.81
561.52	1630.18
561.72	1820.64
561.93	1697.77
562.13	1665.00
562.33	1634.28
562.53	1675.24
562.73	1652.71
562.93	1771.49
563.13	1744.87
563.33	1757.16
563.53	1716.20
563.73	1810.40
563.93	1759.21
564.13	1765.35
564.33	1691.62
564.53	1722.34
564.74	1763.30
564.94	1660.90
565.14	1734.63
565.34	1746.92
565.54	1695.72
565.74	1716.20
565.94	1669.09
566.14	1683.43
566.34	1730.53
566.54	1757.16
566.74	1652.71
566.94	1746.92
567.14	1722.34
567.34	1671.14
567.54	1691.62
567.74	1732.58
567.94	1679.33
568.14	1705.96
568.34	1839.08
568.54	1626.09
568.74	1716.20
568.94	1671.14
569.14	1787.88
569.34	1722.34
569.54	1576.94
569.75	1691.62
569.95	1638.38
570.15	1765.35
570.35	1679.33
570.55	1675.24
570.75	1691.62
570.95	1646.57
571.15	1753.06
571.35	1687.53
571.55	1662.95
571.75	1761.25
571.95	1648.61
572.15	1681.38
572.35	1732.58
572.55	1689.57
572.75	1634.28
572.95	1552.36
573.15	1705.96
573.35	1703.91
573.55	1761.25
573.75	1613.80
573.95	1853.41
574.15	1779.68
574.35	1589.22
574.55	1712.10
574.75	1673.19
574.95	1615.85
575.15	1687.53
575.34	1705.96
575.54	1656.81
575.74	1705.96
575.94	1701.86
576.14	1650.66
576.34	1730.53
576.54	1642.47
576.74	1816.55
576.94	1601.51
577.14	1685.48
577.34	1751.01
577.54	1613.80
577.74	1652.71
577.94	1720.29
578.14	1652.71
578.34	1771.49
578.54	1617.90
578.74	1687.53
578.94	1691.62
579.14	1710.05
579.34	1613.80
579.54	1716.20
579.74	1691.62
579.94	1642.47
580.13	1734.63
580.33	1650.66
580.53	1640.42
580.73	1669.09
580.93	1753.06
581.13	1644.52
581.33	1691.62
581.53	1675.24
581.73	1705.96
581.93	1626.09
582.13	1771.49
582.33	1722.34
582.53	1570.79
582.73	1585.13
582.92	1650.66
583.12	1738.73
583.32	1572.84
583.52	1724.39
583.72	1765.35
583.92	1755.11
584.12	1697.77
584.32	1689.57
584.52	1552.36
584.72	1581.03
584.92	1720.29
585.11	1669.09
585.31	1816.55
585.51	1572.84
585.71	1722.34
585.91	1751.01
586.11	1697.77
586.31	1708.01
586.51	1726.44
586.71	1697.77
586.91	1681.38
587.10	1695.72
587.30	1714.15
587.50	1710.05
587.70	1605.61
587.90	1699.81
588.10	1585.13
588.30	1640.42
588.50	1652.71
588.69	1710.05
588.89	1755.11
589.09	1744.87
589.29	1654.76
589.49	1722.34
589.69	1665.00
589.89	1726.44
590.08	1652.71
590.28	1583.08
590.48	1740.77
590.68	1689.57
590.88	1683.43
591.08	1718.25
591.28	1785.83
591.47	1662.95
591.67	1587.18
591.87	1691.62
592.07	1773.54
592.27	1607.66
592.47	1576.94
592.67	1781.73
592.86	1634.28
593.06	1771.49
593.26	1769.44
593.46	1716.20
593.66	1615.85
593.86	1757.16
594.05	1710.05
594.25	1736.68
594.45	1691.62
594.65	1867.75
594.85	1714.15
595.05	1695.72
595.24	1693.67
595.44	1675.24
595.64	1693.67
595.84	1699.81
596.04	1689.57
596.23	1624.04
596.43	1796.07
596.63	1632.23
596.83	1638.38
597.03	1826.79
597.22	1687.53
597.42	1822.69
597.62	1748.97
597.82	1755.11
598.02	1765.35
598.21	1652.71
598.41	1748.97
598.61	1671.14
598.81	1624.04
599.01	1607.66
599.20	1697.77
599.40	1673.19
599.60	1748.97
599.80	1665.00
600.00	1882.08
600.19	1687.53
600.39	1708.01
600.59	1830.88
600.79	1794.02
600.98	1708.01
601.18	1800.16
601.38	1738.73
601.58	1742.82
601.78	1744.87
601.97	1742.82
602.17	1757.16
602.37	1615.85
602.57	1732.58
602.76	1722.34
602.96	1673.19
603.16	1591.27
603.36	1730.53
603.55	1677.29
603.75	1642.47
603.95	1746.92
604.15	1753.06
604.34	1689.57
604.54	1742.82
604.74	1810.40
604.94	1716.20
605.13	1669.09
605.33	1671.14
605.53	1630.18
605.73	1667.05
605.92	1673.19
606.12	1726.44
606.32	1681.38
606.52	1708.01
606.71	1712.10
606.91	1753.06
607.11	1630.18
607.30	1712.10
607.50	1660.90
607.70	1839.08
607.90	1646.57
608.09	1650.66
608.29	1687.53
608.49	1738.73
608.68	1607.66
608.88	1540.07
609.08	1665.00
609.28	1714.15
609.47	1634.28
609.67	1773.54
609.87	1685.48
610.06	1791.97
610.26	1693.67
610.46	1716.20
610.66	1626.09
610.85	1638.38
611.05	1712.10
611.25	1732.58
611.44	1677.29
611.64	1650.66
611.84	1660.90
612.03	1746.92
612.23	1708.01
612.43	1757.16
612.62	1746.92
612.82	1759.21
613.02	1777.64
613.21	1800.16
613.41	1720.29
613.61	1650.66
613.80	1640.42
614.00	1669.09
614.20	1742.82
614.39	1771.49
614.59	1740.77
614.79	1656.81
614.98	1642.47
615.18	1734.63
615.38	1695.72
615.57	1607.66
615.77	1828.84
615.97	1665.00
616.16	1736.68
616.36	1773.54
616.56	1705.96
616.75	1695.72
616.95	1609.70
617.15	1662.95
617.34	1585.13
617.54	1779.68
617.74	1877.99
617.93	1798.12
618.13	1626.09
618.32	1626.09
618.52	1658.85
618.72	1679.33
618.91	1798.12
619.11	1748.97
619.31	1685.48
619.50	1644.52
619.70	1578.98
619.90	1697.77
620.09	1734.63
620.29	1658.85
620.48	1828.84
620.68	1716.20
620.88	1703.91
621.07	1820.64
621.27	1753.06
621.46	1781.73
621.66	1763.30
621.86	1730.53
622.05	1695.72
622.25	1822.69
622.44	1673.19
622.64	1744.87
622.84	1617.90
623.03	1613.80
623.23	1650.66
623.42	1757.16
623.62	1781.73
623.82	1765.35
624.01	1652.71
624.21	1724.39
624.40	1824.74
624.60	1673.19
624.80	1671.14
624.99	1677.29
625.19	1787.88
625.38	1683.43
625.58	1687.53
625.77	1767.40
625.97	1814.50
626.17	1665.00
626.36	1589.22
626.56	1769.44
626.75	1646.57
626.95	1650.66
627.14	1734.63
627.34	1626.09
627.54	1740.77
627.73	1791.97
627.93	1757.16
628.12	1693.67
628.32	1675.24
628.51	1712.10
628.71	1796.07
628.90	1734.63
629.10	1607.66
629.30	1656.81
629.49	1728.49
629.69	1695.72
629.88	1742.82
630.08	1789.92
630.27	1884.13
630.47	1710.05
630.66	1689.57
630.86	1765.35
631.05	1609.70
631.25	1757.16
631.44	1736.68
631.64	1607.66
631.84	1652.71
632.03	1738.73
632.23	1718.25
632.42	1736.68
632.62	1617.90
632.81	1630.18
633.01	1660.90
633.20	1794.02
633.40	1804.26
633.59	1779.68
633.79	1703.91
633.98	1785.83
634.18	1751.01
634.37	1761.25
634.57	1683.43
634.76	1665.00
634.96	1763.30
635.15	1927.14
635.35	1810.40
635.54	1703.91
635.74	1742.82
635.93	1628.14
636.13	1656.81
636.32	1767.40
636.52	1763.30
636.71	1714.15
636.91	1714.15
637.10	1781.73
637.30	1679.33
637.49	1669.09
637.69	1822.69
637.88	1716.20
638.08	1683.43
638.27	1660.90
638.46	1697.77
638.66	1654.76
638.85	1634.28
639.05	1769.44
639.24	1769.44
639.44	1722.34
639.63	1820.64
639.83	1691.62
640.02	1759.21
640.22	1693.67
640.41	1669.09
640.61	1748.97
640.80	1718.25
640.99	1636.33
641.19	1814.50
641.38	1789.92
641.58	1722.34
641.77	1681.38
641.97	1619.94
642.16	1607.66
642.36	1736.68
642.55	1673.19
642.74	1734.63
642.94	1658.85
643.13	1650.66
643.33	1679.33
643.52	1734.63
643.72	1810.40
643.91	1636.33
644.10	1771.49
644.30	1677.29
644.49	1708.01
644.69	1708.01
644.88	1679.33
645.08	1765.35
645.27	1779.68
645.46	1665.00
645.66	1710.05
645.85	1759.21
646.05	1746.92
646.24	1630.18
646.43	1669.09
646.63	1734.63
646.82	1642.47
647.02	1656.81
647.21	1812.45
647.40	1689.57
647.60	1628.14
647.79	1693.67
647.99	1654.76
648.18	1656.81
648.37	1779.68
648.57	1697.77
648.76	1667.05
648.96	1691.62
649.15	1761.25
649.34	1796.07
649.54	1691.62
649.73	1744.87
649.92	1667.05
650.12	1748.97
650.31	1636.33
650.51	1871.84
650.70	1693.67
650.89	1644.52
651.09	1787.88
651.28	1734.63
651.47	1658.85
651.67	1689.57
651.86	1822.69
652.06	1732.58
652.25	1710.05
652.44	1667.05
652.64	1730.53
652.83	1685.48
653.02	1697.77
653.22	1728.49
653.41	1716.20
653.60	1708.01
653.80	1681.38
653.99	1708.01
654.18	1615.85
654.38	1650.66
654.57	1740.77
654.76	1652.71
654.96	1769.44
655.15	1644.52
655.34	1763.30
655.54	1595.37
655.73	1638.38
655.92	1689.57
656.12	1634.28
656.31	1783.78
656.50	1837.03
656.70	1710.05
656.89	1654.76
657.08	1634.28
657.28	1667.05
657.47	1691.62
657.66	1728.49
657.86	1642.47
658.05	1738.73
658.24	1736.68
658.43	1722.34
658.63	1613.80
658.82	1734.63
659.01	1748.97
659.21	1779.68
659.40	1740.77
659.59	1740.77
659.79	1699.81
659.98	1775.59
660.17	1714.15
660.36	1732.58
660.56	1691.62
660.75	1738.73
660.94	1679.33
661.14	1722.34
661.33	1624.04
661.52	1705.96
661.71	1703.91
661.91	1710.05
662.10	1677.29
662.29	1636.33
662.49	1699.81
662.68	1603.56
662.87	1634.28
663.06	1710.05
663.26	1673.19
663.45	1822.69
663.64	1693.67
663.83	1601.51
664.03	1726.44
664.22	1679.33
664.41	1820.64
664.60	1826.79
664.80	1593.32
664.99	1806.31
665.18	1787.88
665.37	1691.62
665.57	1777.64
665.76	1656.81
665.95	1732.58
666.14	1718.25
666.34	1621.99
666.53	1705.96
666.72	1613.80
666.91	1757.16
667.11	1650.66
667.30	1830.88
667.49	1720.29
667.68	1834.98
667.87	1683.43
668.07	1714.15
668.26	1634.28
668.45	1681.38
668.64	1675.24
668.84	1804.26
669.03	1671.14
669.22	1728.49
669.41	1734.63
669.60	1660.90
669.80	1742.82
669.99	1689.57
670.18	1611.75
670.37	1806.31
670.57	1767.40
670.76	1767.40
670.95	1771.49
671.14	1761.25
671.33	1748.97
671.53	1703.91
671.72	1714.15
671.91	1802.21
672.10	1695.72
672.29	1712.10
672.48	1640.42
672.68	1669.09
672.87	1679.33
673.06	1617.90
673.25	1662.95
673.44	1662.95
673.64	1648.61
673.83	1726.44
674.02	1734.63
674.21	1746.92
674.40	1708.01
674.59	1693.67
674.79	1658.85
674.98	1699.81
675.17	1798.12
675.36	1599.46
675.55	1724.39
675.74	1593.32
675.94	1794.02
676.13	1693.67
676.32	1724.39
676.51	1671.14
676.70	1609.70
676.89	1761.25
677.08	1716.20
677.28	1798.12
677.47	1701.86
677.66	1740.77
677.85	1667.05
678.04	1732.58
678.23	1814.50
678.42	1683.43
678.62	1667.05
678.81	1693.67
679.00	1767.40
679.19	1781.73
679.38	1742.82
679.57	1646.57
679.76	1667.05
679.96	1697.77
680.15	1740.77
680.34	1656.81
680.53	1718.25
680.72	1757.16
680.91	1724.39
681.10	1722.34
681.29	1658.85
681.48	1765.35
681.68	1722.34
681.87	1767.40
682.06	1769.44
682.25	1753.06
682.44	1671.14
682.63	1759.21
682.82	1593.32
683.01	1794.02
683.20	1687.53
683.39	1781.73
683.59	1634.28
683.78	1708.01
683.97	1665.00
684.16	1679.33
684.35	1601.51
684.54	1681.38
684.73	1740.77
684.92	1617.90
685.11	1763.30
685.30	1724.39
685.49	1753.06
685.69	1730.53
685.88	1615.85
686.07	1703.91
686.26	1621.99
686.45	1644.52
686.64	1798.12
686.83	1693.67
687.02	1744.87
687.21	1781.73
687.40	1673.19
687.59	1863.65
687.78	1736.68
687.97	1765.35
688.16	1701.86
688.35	1648.61
688.54	1675.24
688.74	1443.82
688.93	1699.81
689.12	1757.16
689.31	1802.21
689.50	1787.88
689.69	1595.37
689.88	1589.22
690.07	1681.38
690.26	1736.68
690.45	1644.52
690.64	1607.66
690.83	1613.80
691.02	1695.72
691.21	1740.77
691.40	1710.05
691.59	1712.10
691.78	1726.44
691.97	1660.90
692.16	1683.43
692.35	1699.81
692.54	1796.07
692.73	1644.52
692.92	1740.77
693.11	1716.20
693.30	1744.87
693.49	1658.85
693.68	1771.49
693.87	1679.33
694.06	1642.47
694.25	1566.70
694.44	1650.66
694.63	1658.85
694.82	1589.22
695.01	1683.43
695.20	1765.35
695.39	1712.10
695.58	1720.29
695.77	1642.47
695.96	1687.53
696.15	1593.32
696.34	1716.20
696.53	1748.97
696.72	1644.52
696.91	1617.90
697.10	1712.10
697.29	1724.39
697.48	1804.26
697.67	1720.29
697.86	1654.76
698.05	1587.18
698.24	1714.15
698.43	1720.29
698.62	1705.96
698.81	1650.66
699.00	1794.02
699.19	1724.39
699.38	1728.49
699.57	1660.90
699.76	1824.74
699.95	1621.99
700.14	1679.33
700.32	1716.20
700.51	1669.09
700.70	1634.28
700.89	1720.29
701.08	1705.96
701.27	1624.04
701.46	1802.21
701.65	1685.48
701.84	1621.99
702.03	1634.28
702.22	1830.88
702.41	1775.59
702.60	1789.92
702.79	1705.96
702.98	1630.18
703.17	1730.53
703.35	1685.48
703.54	1685.48
703.73	1681.38
703.92	1634.28
704.11	1564.65
704.30	1632.23
704.49	1759.21
704.68	1628.14
704.87	1681.38
705.06	1834.98
705.25	1615.85
705.43	1660.90
705.62	1701.86
705.81	1716.20
706.00	1705.96
706.19	1599.46
706.38	1673.19
706.57	1804.26
706.76	1677.29
706.95	1615.85
707.14	1777.64
707.32	1632.23
707.51	1638.38
707.70	1689.57
707.89	1699.81
708.08	1675.24
708.27	1693.67
708.46	1697.77
708.65	1634.28
708.84	1785.83
709.02	1671.14
709.21	1640.42
709.40	1718.25
709.59	1779.68
709.78	1665.00
709.97	1656.81
710.16	1751.01
710.34	1730.53
710.53	1699.81
710.72	1710.05
710.91	1738.73
711.10	1585.13
711.29	1603.56
711.48	1671.14
711.66	1689.57
711.85	1673.19
712.04	1742.82
712.23	1636.33
712.42	1773.54
712.61	1785.83
712.80	1650.66
712.98	1677.29
713.17	1624.04
713.36	1689.57
713.55	1837.03
713.74	1769.44
713.93	1751.01
714.11	1736.68
714.30	1619.94
714.49	1695.72
714.68	1703.91
714.87	1626.09
715.06	1781.73
715.24	1738.73
715.43	1726.44
715.62	1665.00
715.81	1646.57
716.00	1634.28
716.18	1652.71
716.37	1710.05
716.56	1617.90
716.75	1660.90
716.94	1689.57
717.12	1673.19
717.31	1624.04
717.50	1624.04
717.69	1640.42
717.88	1654.76
718.06	1665.00
718.25	1699.81
718.44	1695.72
718.63	1789.92
718.82	1636.33
719.00	1654.76
719.19	1789.92
719.38	1638.38
719.57	1716.20
719.76	1656.81
719.94	1722.34
720.13	1718.25
720.32	1810.40
720.51	1609.70
720.69	1740.77
720.88	1714.15
721.07	1744.87
721.26	1757.16
721.44	1744.87
721.63	1744.87
721.82	1708.01
722.01	1748.97
722.20	1726.44
722.38	1699.81
722.57	1652.71
722.76	1732.58
722.95	1654.76
723.13	1679.33
723.32	1630.18
723.51	1730.53
723.70	1683.43
723.88	1791.97
724.07	1609.70
724.26	1703.91
724.44	1689.57
724.63	1765.35
724.82	1628.14
725.01	1658.85
725.19	1632.23
725.38	1699.81
725.57	1642.47
725.76	1738.73
725.94	1636.33
726.13	1677.29
726.32	1681.38
726.51	1652.71
726.69	1685.48
726.88	1691.62
727.07	1683.43
727.25	1675.24
727.44	1669.09
727.63	1646.57
727.82	1650.66
728.00	1712.10
728.19	1705.96
728.38	1667.05
728.56	1640.42
728.75	1751.01
728.94	1759.21
729.12	1722.34
729.31	1673.19
729.50	1626.09
729.69	1685.48
729.87	1624.04
730.06	1591.27
730.25	1740.77
730.43	1730.53
730.62	1597.42
730.81	1593.32
730.99	1705.96
731.18	1673.19
731.37	1644.52
731.55	1662.95
731.74	1687.53
731.93	1667.05
732.11	1646.57
732.30	1656.81
732.49	1738.73
732.67	1656.81
732.86	1687.53
733.05	1619.94
733.23	1695.72
733.42	1646.57
733.61	1683.43
733.79	1583.08
733.98	1740.77
734.17	1626.09
734.35	1722.34
734.54	1728.49
734.73	1714.15
734.91	1617.90
735.10	1720.29
735.29	1685.48
735.47	1574.89
735.66	1640.42
735.84	1675.24
736.03	1607.66
736.22	1660.90
736.40	1728.49
736.59	1558.50
736.78	1714.15
736.96	1677.29
737.15	1665.00
737.33	1714.15
737.52	1617.90
737.71	1683.43
737.89	1724.39
738.08	1701.86
738.27	1720.29
738.45	1734.63
738.64	1683.43
738.82	1636.33
739.01	1703.91
739.20	1730.53
739.38	1714.15
739.57	1753.06
739.75	1701.86
739.94	1716.20
740.13	1529.83
740.31	1681.38
740.50	1675.24
740.68	1640.42
740.87	1650.66
741.06	1820.64
741.24	1712.10
741.43	1662.95
741.61	1648.61
741.80	1628.14
741.99	1613.80
742.17	1791.97
742.36	1619.94
742.54	1775.59
742.73	1712.10
742.91	1669.09
743.10	1568.74
743.29	1705.96
743.47	1710.05
743.66	1656.81
743.84	1679.33
744.03	1703.91
744.21	1642.47
744.40	1701.86
744.59	1691.62
744.77	1605.61
744.96	1767.40
745.14	1662.95
745.33	1652.71
745.51	1681.38
745.70	1638.38
745.88	1658.85
746.07	1648.61
746.26	1648.61
746.44	1642.47
746.63	1525.74
746.81	1728.49
747.00	1689.57
747.18	1628.14
747.37	1656.81
747.55	1724.39
747.74	1945.57
747.92	1658.85
748.11	1708.01
748.29	1695.72
748.48	1691.62
748.66	1705.96
748.85	1656.81
749.03	1699.81
749.22	1665.00
749.41	1617.90
749.59	1705.96
749.78	1689.57
749.96	1509.35
750.15	1669.09
750.33	1720.29
750.52	1589.22
750.70	1642.47
750.89	1718.25
751.07	1644.52
751.26	1662.95
751.44	1675.24
751.63	1722.34
751.81	1603.56
752.00	1611.75
752.18	1673.19
752.37	1679.33
752.55	1601.51
752.74	1658.85
752.92	1570.79
753.10	1634.28
753.29	1656.81
753.47	1705.96
753.66	1603.56
753.84	1660.90
754.03	1613.80
754.21	1648.61
754.40	1654.76
754.58	1691.62
754.77	1753.06
754.95	1720.29
755.14	1679.33
755.32	1699.81
755.51	1601.51
755.69	1699.81
755.88	1652.71
756.06	1765.35
756.24	1601.51
756.43	1757.16
756.61	1712.10
756.80	1615.85
756.98	1650.66
757.17	1740.77
757.35	1665.00
757.54	1671.14
757.72	1642.47
757.90	1650.66
758.09	1609.70
758.27	1634.28
758.46	1654.76
758.64	1654.76
758.83	1763.30
759.01	1777.64
759.19	1699.81
759.38	1748.97
759.56	1761.25
759.75	1671.14
759.93	1746.92
760.12	1658.85
760.30	1658.85
760.48	1677.29
760.67	1654.76
760.85	1658.85
761.04	1695.72
761.22	1630.18
761.40	1724.39
761.59	1617.90
761.77	1613.80
761.96	1667.05
762.14	1650.66
762.32	1705.96
762.51	1611.75
762.69	1615.85
762.88	1621.99
763.06	1626.09
763.24	1636.33
763.43	1662.95
763.61	1642.47
763.80	1665.00
763.98	1708.01
764.16	1611.75
764.35	1609.70
764.53	1642.47
764.72	1675.24
764.90	1660.90
765.08	1759.21
765.27	1691.62
765.45	1601.51
765.63	1685.48
765.82	1697.77
766.00	1662.95
766.18	1685.48
766.37	1607.66
766.55	1613.80
766.74	1671.14
766.92	1611.75
767.10	1656.81
767.29	1751.01
767.47	1632.23
767.65	1638.38
767.84	1755.11
768.02	1736.68
768.20	1695.72
768.39	1769.44
768.57	1607.66
768.75	1636.33
768.94	1708.01
769.12	1609.70
769.30	1677.29
769.49	1714.15
769.67	1650.66
769.85	1785.83
770.04	1636.33
770.22	1607.66
770.40	1658.85
770.59	1751.01
770.77	1771.49
770.95	1718.25
771.14	1681.38
771.32	1691.62
771.50	1603.56
771.69	1630.18
771.87	1615.85
772.05	1650.66
772.24	1585.13
772.42	1751.01
772.60	1675.24
772.78	1705.96
772.97	1636.33
773.15	1642.47
773.33	1685.48
773.52	1593.32
773.70	1640.42
773.88	1701.86
774.07	1636.33
774.25	1599.46
774.43	1648.61
774.61	1701.86
774.80	1710.05
774.98	1621.99
775.16	1650.66
775.34	1628.14
775.53	1738.73
775.71	1675.24
775.89	1724.39
776.08	1603.56
776.26	1699.81
776.44	1705.96
776.62	1765.35
776.81	1765.35
776.99	1710.05
777.17	1699.81
777.35	1722.34
777.54	1716.20
777.72	1671.14
777.90	1603.56
778.08	1552.36
778.27	1613.80
778.45	1617.90
778.63	1619.94
778.81	1673.19
779.00	1689.57
779.18	1703.91
779.36	1742.82
779.54	1669.09
779.73	1646.57
779.91	1624.04
780.09	1705.96
780.27	1624.04
780.46	1667.05
780.64	1574.89
780.82	1679.33
781.00	1611.75
781.19	1603.56
781.37	1638.38
781.55	1726.44
781.73	1675.24
781.91	1617.90
782.10	1681.38
782.28	1662.95
782.46	1724.39
782.64	1765.35
782.82	1712.10
783.01	1662.95
783.19	1693.67
783.37	1720.29
783.55	1708.01
783.74	1628.14
783.92	1621.99
784.10	1603.56
784.28	1685.48
784.46	1652.71
784.64	1589.22
784.83	1738.73
785.01	1771.49
785.19	1771.49
785.37	1718.25
785.55	1679.33
785.74	1667.05
785.92	1679.33
786.10	1640.42
786.28	1785.83
786.46	1720.29
786.64	1710.05
786.83	1632.23
787.01	1742.82
787.19	1720.29
787.37	1687.53
787.55	1558.50
787.74	1656.81
787.92	1695.72
788.10	1677.29
788.28	1617.90
788.46	1683.43
788.64	1755.11
788.82	1744.87
789.01	1656.81
789.19	1783.78
789.37	1710.05
789.55	1611.75
789.73	1642.47
789.91	1689.57
790.09	1662.95
790.28	1617.90
790.46	1605.61
790.64	1724.39
790.82	1581.03
791.00	1615.85
791.18	1708.01
791.36	1699.81
791.55	1681.38
791.73	1603.56
791.91	1599.46
792.09	1687.53
792.27	1554.41
792.45	1656.81
792.63	1728.49
792.81	1671.14
793.00	1732.58
793.18	1624.04
793.36	1675.24
793.54	1683.43
793.72	1578.98
793.90	1691.62
794.08	1593.32
794.26	1634.28
794.44	1507.30
794.62	1642.47
794.81	1621.99
794.99	1624.04
795.17	1748.97
795.35	1660.90
795.53	1607.66
795.71	1654.76
795.89	1675.24
796.07	1591.27
796.25	1652.71
796.43	1789.92
796.61	1673.19
796.80	1722.34
796.98	1691.62
797.16	1646.57
797.34	1644.52
797.52	1603.56
797.70	1730.53
797.88	1740.77
798.06	1683.43
798.24	1658.85
798.42	1658.85
798.60	1742.82
798.78	1648.61
798.96	1753.06
799.14	1556.46
799.32	1767.40
799.51	1552.36
799.69	1775.59
799.87	1796.07
800.05	1613.80
800.23	1628.14
800.41	1695.72
800.59	1712.10
800.77	1568.74
800.95	1533.93
801.13	1744.87
801.31	1720.29
801.49	1773.54
801.67	1724.39
801.85	1648.61
802.03	1607.66
802.21	1751.01
802.39	1615.85
802.57	1708.01
802.75	1708.01
802.93	1755.11
803.11	1632.23
803.29	1691.62
803.47	1662.95
803.65	1710.05
803.83	1617.90
804.01	1660.90
804.19	1652.71
804.37	1689.57
804.55	1640.42
804.73	1689.57
804.91	1572.84
805.09	1660.90
805.27	1681.38
805.45	1679.33
805.63	1640.42
805.81	1730.53
805.99	1781.73
806.17	1646.57
806.35	1607.66
806.53	1687.53
806.71	1646.57
806.89	1644.52
807.07	1671.14
807.25	1695.72
807.43	1654.76
807.61	1730.53
807.79	1705.96
807.97	1708.01
808.15	1744.87
808.33	1619.94
808.51	1714.15
808.69	1603.56
808.87	1583.08
809.05	1593.32
809.23	1550.31
809.41	1581.03
809.59	1652.71
809.77	1720.29
809.95	1632.23
810.13	1705.96
810.31	1638.38
810.49	1785.83
810.67	1632.23
810.84	1660.90
811.02	1652.71
811.20	1628.14
811.38	1716.20
811.56	1550.31
811.74	1595.37
811.92	1603.56
812.10	1714.15
812.28	1740.77
812.46	1714.15
812.64	1679.33
812.82	1701.86
813.00	1675.24
813.18	1576.94
813.36	1621.99
813.53	1644.52
813.71	1734.63
813.89	1597.42
814.07	1624.04
814.25	1681.38
814.43	1613.80
814.61	1705.96
814.79	1638.38
814.97	1624.04
815.15	1654.76
815.33	1591.27
815.50	1693.67
815.68	1681.38
815.86	1689.57
816.04	1660.90
816.22	1708.01
816.40	1720.29
816.58	1685.48
816.76	1615.85
816.94	1650.66
817.11	1572.84
817.29	1662.95
817.47	1617.90
817.65	1617.90
817.83	1642.47
818.01	1652.71
818.19	1572.84
818.37	1695.72
818.54	1679.33
818.72	1710.05
818.90	1736.68
819.08	1685.48
819.26	1716.20
819.44	1794.02
819.62	1683.43
819.80	1634.28
819.97	1677.29
820.15	1589.22
820.33	1650.66
820.51	1587.18
820.69	1708.01
820.87	1720.29
821.05	1705.96
821.22	1642.47
821.40	1683.43
821.58	1687.53
821.76	1630.18
821.94	1531.88
822.12	1665.00
822.29	1708.01
822.47	1667.05
822.65	1683.43
822.83	1630.18
823.01	1689.57
823.19	1611.75
823.36	1607.66
823.54	1621.99
823.72	1671.14
823.90	1695.72
824.08	1570.79
824.25	1691.62
824.43	1677.29
824.61	1548.26
824.79	1675.24
824.97	1634.28
825.15	1673.19
825.32	1607.66
825.50	1699.81
825.68	1540.07
825.86	1720.29
826.04	1679.33
826.21	1777.64
826.39	1736.68
826.57	1714.15
826.75	1691.62
826.93	1656.81
827.10	1650.66
827.28	1675.24
827.46	1646.57
827.64	1730.53
827.81	1613.80
827.99	1677.29
828.17	1591.27
828.35	1558.50
828.53	1617.90
828.70	1683.43
828.88	1597.42
829.06	1599.46
829.24	1667.05
829.41	1724.39
829.59	1763.30
829.77	1662.95
829.95	1705.96
830.12	1624.04
830.30	1669.09
830.48	1660.90
830.66	1617.90
830.84	1656.81
831.01	1681.38
831.19	1613.80
831.37	1697.77
831.55	1720.29
831.72	1689.57
831.90	1734.63
832.08	1640.42
832.25	1636.33
832.43	1679.33
832.61	1773.54
832.79	1626.09
832.96	1658.85
833.14	1714.15
833.32	1738.73
833.50	1568.74
833.67	1679.33
833.85	1634.28
834.03	1585.13
834.20	1638.38
834.38	1681.38
834.56	1626.09
834.74	1574.89
834.91	1695.72
835.09	1771.49
835.27	1564.65
835.44	1703.91
835.62	1611.75
835.80	1652.71
835.98	1607.66
836.15	1746.92
836.33	1564.65
836.51	1572.84
836.68	1626.09
836.86	1609.70
837.04	1679.33
837.21	1742.82
837.39	1675.24
837.57	1755.11
837.75	1740.77
837.92	1636.33
838.10	1597.42
838.28	1662.95
838.45	1679.33
838.63	1572.84
838.81	1712.10
838.98	1712.10
839.16	1630.18
839.34	1699.81
839.51	1687.53
839.69	1626.09
839.87	1595.37
840.04	1650.66
840.22	1902.56
840.40	1617.90
840.57	1626.09
840.75	1636.33
840.93	1665.00
841.10	1597.42
841.28	1687.53
841.46	1681.38
841.63	1669.09
841.81	1613.80
841.98	1521.64
842.16	1726.44
842.34	1607.66
842.51	1490.92
842.69	1634.28
842.87	1617.90
843.04	1720.29
843.22	1665.00
843.40	1583.08
843.57	1546.22
843.75	1593.32
843.92	1718.25
844.10	1748.97
844.28	1613.80
844.45	1560.55
844.63	1691.62
844.81	1652.71
844.98	1712.10
845.16	1626.09
845.33	1703.91
845.51	1646.57
845.69	1689.57
845.86	1746.92
846.04	1574.89
846.21	1662.95
846.39	1632.23
846.57	1630.18
846.74	1583.08
846.92	1673.19
847.09	1646.57
847.27	1619.94
847.45	1646.57
847.62	1650.66
847.80	1652.71
847.97	1634.28
848.15	1548.26
848.32	1603.56
848.50	1613.80
848.68	1624.04
848.85	1671.14
849.03	1521.64
849.20	1665.00
849.38	1669.09
849.56	1585.13
849.73	1613.80
849.91	1636.33
850.08	1753.06
850.26	1527.78
850.43	1630.18
850.61	1728.49
850.78	1603.56
850.96	1746.92
851.14	1525.74
851.31	1837.03
851.49	1640.42
851.66	1722.34
851.84	1593.32
852.01	1650.66
852.19	1583.08
852.36	1724.39
852.54	1634.28
852.71	1624.04
852.89	1710.05
853.07	1675.24
853.24	1613.80
853.42	1617.90
853.59	1638.38
853.77	1519.59
853.94	1630.18
854.12	1675.24
854.29	1603.56
854.47	1611.75
854.64	1656.81
854.82	1679.33
854.99	1644.52
855.17	1615.85
855.34	1624.04
855.52	1689.57
855.69	1853.41
855.87	1607.66
856.04	1650.66
856.22	1679.33
856.39	1650.66
856.57	1658.85
856.74	1636.33
856.92	1761.25
857.09	1601.51
857.27	1605.61
857.44	1671.14
857.62	1726.44
857.79	1650.66
857.97	1607.66
858.14	1658.85
858.32	1714.15
858.49	1624.04
858.67	1660.90
858.84	1613.80
859.02	1693.67
859.19	1619.94
859.37	1591.27
859.54	1546.22
859.72	1617.90
859.89	1585.13
860.06	1630.18
860.24	1615.85
860.41	1722.34
860.59	1607.66
860.76	1662.95
860.94	1652.71
861.11	1705.96
861.29	1660.90
861.46	1581.03
861.64	1658.85
861.81	1761.25
861.98	1581.03
862.16	1718.25
862.33	1566.70
862.51	1736.68
862.68	1630.18
862.86	1578.98
863.03	1540.07
863.21	1667.05
863.38	1591.27
863.55	1538.02
863.73	1705.96
863.90	1675.24
864.08	1601.51
864.25	1726.44
864.43	1689.57
864.60	1650.66
864.77	1615.85
864.95	1652.71
865.12	1599.46
865.30	1708.01
865.47	1652.71
865.64	1718.25
865.82	1687.53
865.99	1732.58
866.17	1724.39
866.34	1744.87
866.51	1533.93
866.69	1613.80
866.86	1710.05
867.04	1753.06
867.21	1628.14
867.38	1609.70
867.56	1615.85
867.73	1646.57
867.91	1638.38
868.08	1632.23
868.25	1615.85
868.43	1716.20
868.60	1611.75
868.78	1597.42
868.95	1720.29
869.12	1650.66
869.30	1646.57
869.47	1701.86
869.64	1621.99
869.82	1578.98
869.99	1701.86
870.16	1691.62
870.34	1677.29
870.51	1744.87
870.69	1533.93
870.86	1609.70
871.03	1640.42
871.21	1613.80
871.38	1697.77
871.55	1630.18
871.73	1654.76
871.90	1617.90
872.07	1566.70
872.25	1540.07
872.42	1572.84
872.59	1552.36
872.77	1595.37
872.94	1650.66
873.11	1578.98
873.29	1687.53
873.46	1574.89
873.63	1640.42
873.81	1609.70
873.98	1697.77
874.15	1654.76
874.33	1556.46
874.50	1699.81
874.67	1755.11
874.85	1617.90
875.02	1646.57
875.19	1583.08
875.37	1660.90
875.54	1519.59
875.71	1656.81
875.88	1712.10
876.06	1581.03
876.23	1665.00
876.40	1644.52
876.58	1619.94
876.75	1804.26
876.92	1595.37
877.10	1636.33
877.27	1595.37
877.44	1621.99
877.61	1585.13
877.79	1716.20
877.96	1699.81
878.13	1613.80
878.31	1624.04
878.48	1699.81
878.65	1683.43
878.82	1540.07
879.00	1628.14
879.17	1669.09
879.34	1609.70
879.51	1583.08
879.69	1613.80
879.86	1554.41
880.03	1611.75
880.21	1648.61
880.38	1689.57
880.55	1689.57
880.72	1767.40
880.90	1658.85
881.07	1656.81
881.24	1699.81
881.41	1611.75
881.59	1609.70
881.76	1654.76
881.93	1759.21
882.10	1683.43
882.28	1648.61
882.45	1683.43
882.62	1646.57
882.79	1669.09
882.96	1517.54
883.14	1687.53
883.31	1751.01
883.48	1621.99
883.65	1603.56
883.83	1677.29
884.00	1650.66
884.17	1621.99
884.34	1742.82
884.51	1757.16
884.69	1720.29
884.86	1607.66
885.03	1642.47
885.20	1556.46
885.38	1775.59
885.55	1562.60
885.72	1679.33
885.89	1540.07
886.06	1726.44
886.24	1609.70
886.41	1617.90
886.58	1687.53
886.75	1658.85
886.92	1628.14
887.10	1601.51
887.27	1615.85
887.44	1724.39
887.61	1675.24
887.78	1650.66
887.95	1636.33
888.13	1652.71
888.30	1589.22
888.47	1652.71
888.64	1669.09
888.81	1724.39
888.99	1558.50
889.16	1683.43
889.33	1609.70
889.50	1640.42
889.67	1654.76
889.84	1687.53
890.01	1726.44
890.19	1636.33
890.36	1734.63
890.53	1679.33
890.70	1597.42
890.87	1712.10
891.04	1660.90
891.22	1689.57
891.39	1560.55
891.56	1638.38
891.73	1673.19
891.90	1628.14
892.07	1556.46
892.24	1605.61
892.42	1564.65
892.59	1691.62
892.76	1605.61
892.93	1527.78
893.10	1642.47
893.27	1681.38
893.44	1550.31
893.61	1656.81
893.79	1744.87
893.96	1712.10
894.13	1617.90
894.30	1628.14
894.47	1728.49
894.64	1759.21
894.81	1683.43
894.98	1540.07
895.15	1710.05
895.33	1617.90
895.50	1630.18
895.67	1617.90
895.84	1691.62
896.01	1654.76
896.18	1527.78
896.35	1789.92
896.52	1589.22
896.69	1544.17
896.86	1593.32
897.04	1726.44
897.21	1744.87
897.38	1660.90
897.55	1665.00
897.72	1708.01
897.89	1609.70
898.06	1724.39
898.23	1542.12
898.40	1685.48
898.57	1619.94
898.74	1687.53
898.91	1599.46
899.08	1648.61
899.26	1644.52
899.43	1693.67
899.60	1609.70
899.77	1712.10
899.94	1617.90
900.11	1626.09
900.28	1611.75
900.45	1675.24
900.62	1710.05
900.79	1693.67
900.96	1658.85
901.13	1591.27
901.30	1617.90
901.47	1607.66
901.64	1572.84
901.81	1654.76
901.98	1574.89
902.15	1716.20
902.32	1562.60
902.49	1658.85
902.66	1705.96
902.83	1617.90
903.01	1689.57
903.18	1619.94
903.35	1601.51
903.52	1617.90
903.69	1705.96
903.86	1646.57
904.03	1611.75
904.20	1708.01
904.37	1699.81
904.54	1497.07
904.71	1652.71
904.88	1667.05
905.05	1568.74
905.22	1712.10
905.39	1583.08
905.56	1611.75
905.73	1564.65
905.90	1617.90
906.07	1605.61
906.24	1673.19
906.41	1638.38
906.58	1755.11
906.75	1609.70
906.92	1585.13
907.09	1599.46
907.26	1673.19
907.43	1587.18
907.60	1734.63
907.77	1673.19
907.93	1640.42
908.10	1523.69
908.27	1695.72
908.44	1638.38
908.61	1564.65
908.78	1685.48
908.95	1740.77
909.12	1607.66
909.29	1576.94
909.46	1593.32
909.63	1654.76
909.80	1632.23
909.97	1691.62
910.14	1613.80
910.31	1630.18
910.48	1599.46
910.65	1703.91
910.82	1642.47
910.99	1716.20
911.16	1675.24
911.33	1560.55
911.50	1712.10
911.66	1636.33
911.83	1617.90
912.00	1589.22
912.17	1626.09
912.34	1535.98
912.51	1605.61
912.68	1615.85
912.85	1642.47
913.02	1673.19
913.19	1564.65
913.36	1650.66
913.53	1683.43
913.70	1621.99
913.86	1755.11
914.03	1650.66
914.20	1665.00
914.37	1621.99
914.54	1662.95
914.71	1662.95
914.88	1656.81
915.05	1589.22
915.22	1660.90
915.39	1695.72
915.55	1732.58
915.72	1535.98
915.89	1542.12
916.06	1605.61
916.23	1656.81
916.40	1705.96
916.57	1546.22
916.74	1615.85
916.91	1642.47
917.07	1552.36
917.24	1552.36
917.41	1636.33
917.58	1687.53
917.75	1605.61
917.92	1552.36
918.09	1660.90
918.26	1665.00
918.42	1675.24
918.59	1634.28
918.76	1697.77
918.93	1640.42
919.10	1566.70
919.27	1548.26
919.44	1748.97
919.60	1687.53
919.77	1679.33
919.94	1632.23
920.11	1650.66
920.28	1718.25
920.45	1540.07
920.61	1607.66
920.78	1683.43
920.95	1746.92
921.12	1630.18
921.29	1603.56
921.46	1630.18
921.62	1605.61
921.79	1650.66
921.96	1753.06
922.13	1656.81
922.30	1650.66
922.47	1552.36
922.63	1640.42
922.80	1609.70
922.97	1550.31
923.14	1572.84
923.31	1581.03
923.47	1640.42
923.64	1757.16
923.81	1550.31
923.98	1726.44
924.15	1691.62
924.32	1648.61
924.48	1708.01
924.65	1748.97
924.82	1509.35
924.99	1650.66
925.15	1552.36
925.32	1691.62
925.49	1544.17
925.66	1652.71
925.83	1595.37
925.99	1648.61
926.16	1791.97
926.33	1673.19
926.50	1576.94
926.67	1675.24
926.83	1632.23
927.00	1615.85
927.17	1648.61
927.34	1605.61
927.50	1642.47
927.67	1798.12
927.84	1695.72
928.01	1640.42
928.17	1683.43
928.34	1619.94
928.51	1630.18
928.68	1626.09
928.84	1589.22
929.01	1597.42
929.18	1599.46
929.35	1634.28
929.51	1585.13
929.68	1613.80
929.85	1624.04
930.02	1703.91
930.18	1613.80
930.35	1705.96
930.52	1634.28
930.69	1646.57
930.85	1763.30
931.02	1613.80
931.19	1656.81
931.36	1605.61
931.52	1695.72
931.69	1683.43
931.86	1660.90
932.02	1609.70
932.19	1538.02
932.36	1681.38
932.53	1675.24
932.69	1581.03
932.86	1789.92
933.03	1656.81
933.19	1591.27
933.36	1634.28
933.53	1617.90
933.70	1658.85
933.86	1798.12
934.03	1642.47
934.20	1654.76
934.36	1673.19
934.53	1632.23
934.70	1630.18
934.86	1624.04
935.03	1574.89
935.20	1593.32
935.36	1650.66
935.53	1626.09
935.70	1587.18
935.86	1685.48
936.03	1490.92
936.20	1568.74
936.36	1630.18
936.53	1656.81
936.70	1560.55
936.86	1742.82
937.03	1624.04
937.20	1562.60
937.36	1714.15
937.53	1523.69
937.70	1503.21
937.86	1636.33
938.03	1667.05
938.20	1730.53
938.36	1593.32
938.53	1607.66
938.70	1619.94
938.86	1734.63
939.03	1593.32
939.20	1585.13
939.36	1687.53
939.53	1648.61
939.70	1783.78
939.86	1605.61
940.03	1613.80
940.19	1533.93
940.36	1652.71
940.53	1630.18
940.69	1601.51
940.86	1642.47
941.03	1595.37
941.19	1619.94
941.36	1624.04
941.52	1687.53
941.69	1734.63
941.86	1595.37
942.02	1634.28
942.19	1701.86
942.35	1710.05
942.52	1732.58
942.69	1650.66
942.85	1634.28
943.02	1642.47
943.18	1636.33
943.35	1581.03
943.52	1574.89
943.68	1548.26
943.85	1675.24
944.01	1591.27
944.18	1624.04
944.35	1734.63
944.51	1652.71
944.68	1583.08
944.84	1603.56
945.01	1599.46
945.17	1658.85
945.34	1667.05
945.51	1626.09
945.67	1656.81
945.84	1654.76
946.00	1607.66
946.17	1683.43
946.33	1544.17
946.50	1677.29
946.67	1601.51
946.83	1626.09
947.00	1646.57
947.16	1624.04
947.33	1576.94
947.49	1560.55
947.66	1564.65
947.82	1650.66
947.99	1585.13
948.16	1718.25
948.32	1583.08
948.49	1718.25
948.65	1730.53
948.82	1628.14
948.98	1658.85
949.15	1597.42
949.31	1650.66
949.48	1640.42
949.64	1595.37
949.81	1650.66
949.97	1609.70
950.14	1699.81
950.30	1605.61
950.47	1640.42
950.63	1654.76
950.80	1601.51
950.96	1523.69
951.13	1599.46
951.30	1632.23
951.46	1621.99
951.63	1658.85
951.79	1585.13
951.96	1660.90
952.12	1634.28
952.29	1710.05
952.45	1599.46
952.62	1683.43
952.78	1675.24
952.94	1597.42
953.11	1634.28
953.27	1497.07
953.44	1746.92
953.60	1658.85
953.77	1720.29
953.93	1638.38
954.10	1654.76
954.26	1597.42
954.43	1630.18
954.59	1656.81
954.76	1740.77
954.92	1628.14
955.09	1679.33
955.25	1570.79
955.42	1578.98
955.58	1650.66
955.75	1597.42
955.91	1654.76
956.07	1613.80
956.24	1605.61
956.40	1744.87
956.57	1658.85
956.73	1601.51
956.90	1667.05
957.06	1609.70
957.23	1591.27
957.39	1564.65
957.56	1589.22
957.72	1538.02
957.88	1644.52
958.05	1718.25
958.21	1691.62
958.38	1652.71
958.54	1648.61
958.71	1667.05
958.87	1548.26
959.03	1636.33
959.20	1662.95
959.36	1546.22
959.53	1611.75
959.69	1607.66
959.85	1714.15
960.02	1564.65
960.18	1599.46
960.35	1544.17
960.51	1738.73
960.68	1581.03
960.84	1658.85
961.00	1560.55
961.17	1675.24
961.33	1607.66
961.50	1691.62
961.66	1650.66
961.82	1583.08
961.99	1583.08
962.15	1652.71
962.31	1548.26
962.48	1710.05
962.64	1679.33
962.81	1662.95
962.97	1665.00
963.13	1660.90
963.30	1613.80
963.46	1593.32
963.62	1548.26
963.79	1601.51
963.95	1613.80
964.12	1583.08
964.28	1673.19
964.44	1568.74
964.61	1673.19
964.77	1609.70
964.93	1701.86
965.10	1632.23
965.26	1626.09
965.42	1576.94
965.59	1609.70
965.75	1574.89
965.92	1642.47
966.08	1636.33
966.24	1724.39
966.41	1478.63
966.57	1634.28
966.73	1634.28
966.90	1708.01
967.06	1621.99
967.22	1585.13
967.39	1644.52
967.55	1599.46
967.71	1642.47
967.88	1628.14
968.04	1599.46
968.20	1611.75
968.37	1570.79
968.53	1654.76
968.69	1576.94
968.85	1581.03
969.02	1587.18
969.18	1681.38
969.34	1593.32
969.51	1628.14
969.67	1730.53
969.83	1585.13
970.00	1755.11
970.16	1705.96
970.32	1634.28
970.48	1748.97
970.65	1628.14
970.81	1554.41
970.97	1689.57
971.14	1490.92
971.30	1710.05
971.46	1585.13
971.63	1638.38
971.79	1667.05
971.95	1593.32
972.11	1550.31
972.28	1691.62
972.44	1675.24
972.60	1535.98
972.76	1636.33
972.93	1525.74
973.09	1705.96
973.25	1585.13
973.42	1568.74
973.58	1699.81
973.74	1591.27
973.90	1673.19
974.07	1617.90
974.23	1634.28
974.39	1691.62
974.55	1665.00
974.72	1658.85
974.88	1521.64
975.04	1677.29
975.20	1589.22
975.37	1607.66
975.53	1662.95
975.69	1650.66
975.85	1576.94
976.01	1624.04
976.18	1581.03
976.34	1624.04
976.50	1638.38
976.66	1732.58
976.83	1591.27
976.99	1576.94
977.15	1624.04
977.31	1583.08
977.47	1683.43
977.64	1644.52
977.80	1640.42
977.96	1599.46
978.12	1665.00
978.29	1665.00
978.45	1595.37
978.61	1599.46
978.77	1636.33
978.93	1564.65
979.10	1576.94
979.26	1673.19
979.42	1630.18
979.58	1581.03
979.74	1593.32
979.91	1630.18
980.07	1576.94
980.23	1585.13
980.39	1615.85
980.55	1601.51
980.71	1527.78
980.88	1476.59
981.04	1638.38
981.20	1609.70
981.36	1654.76
981.52	1599.46
981.68	1607.66
981.85	1667.05
982.01	1591.27
982.17	1601.51
982.33	1574.89
982.49	1708.01
982.65	1648.61
982.82	1617.90
982.98	1675.24
983.14	1636.33
983.30	1685.48
983.46	1632.23
983.62	1619.94
983.79	1593.32
983.95	1617.90
984.11	1527.78
984.27	1660.90
984.43	1609.70
984.59	1626.09
984.75	1611.75
984.91	1626.09
985.08	1683.43
985.24	1583.08
985.40	1552.36
985.56	1662.95
985.72	1697.77
985.88	1613.80
986.04	1593.32
986.20	1636.33
986.37	1603.56
986.53	1626.09
986.69	1605.61
986.85	1583.08
987.01	1611.75
987.17	1617.90
987.33	1611.75
987.49	1564.65
987.65	1703.91
987.82	1581.03
987.98	1525.74
988.14	1648.61
988.30	1624.04
988.46	1568.74
988.62	1646.57
988.78	1634.28
988.94	1669.09
989.10	1564.65
989.26	1595.37
989.42	1581.03
989.59	1535.98
989.75	1574.89
989.91	1675.24
990.07	1597.42
990.23	1689.57
990.39	1632.23
990.55	1667.05
990.71	1527.78
990.87	1585.13
991.03	1638.38
991.19	1589.22
991.35	1583.08
991.51	1685.48
991.67	1685.48
991.83	1636.33
992.00	1581.03
992.16	1650.66
992.32	1677.29
992.48	1697.77
992.64	1570.79
992.80	1642.47
992.96	1587.18
993.12	1660.90
993.28	1638.38
993.44	1671.14
993.60	1630.18
993.76	1603.56
993.92	1634.28
994.08	1689.57
994.24	1640.42
994.40	1667.05
994.56	1681.38
994.72	1613.80
994.88	1597.42
995.04	1650.66
995.20	1650.66
995.36	1578.98
995.52	1701.86
995.68	1630.18
995.84	1605.61
996.00	1740.77
996.16	1615.85
996.32	1587.18
996.48	1525.74
996.64	1671.14
996.80	1634.28
996.96	1658.85
997.12	1621.99
997.28	1593.32
997.44	1630.18
997.60	1546.22
997.76	1572.84
997.92	1703.91
998.08	1619.94
998.24	1583.08
998.40	1617.90
998.56	1689.57
998.72	1556.46
998.88	1595.37
999.04	1552.36
999.20	1662.95
999.36	1527.78
999.52	1699.81
999.68	1638.38
999.84	1660.90
1000.00	1601.51
1000.16	1615.85
1000.32	1587.18
1000.48	1744.87
1000.64	1605.61
1000.80	1597.42
1000.95	1505.26
1001.11	1646.57
1001.27	1529.83
1001.43	1630.18
1001.59	1576.94
1001.75	1591.27
1001.91	1572.84
1002.07	1609.70
1002.23	1578.98
1002.39	1574.89
1002.55	1632.23
1002.71	1554.41
1002.87	1599.46
1003.03	1501.16
1003.19	1550.31
1003.34	1734.63
1003.50	1673.19
1003.66	1650.66
1003.82	1636.33
1003.98	1615.85
1004.14	1638.38
1004.30	1550.31
1004.46	1619.94
1004.62	1599.46
1004.78	1621.99
1004.94	1652.71
1005.09	1671.14
1005.25	1517.54
1005.41	1609.70
1005.57	1617.90
1005.73	1611.75
1005.89	1656.81
1006.05	1679.33
1006.21	1662.95
1006.37	1554.41
1006.52	1607.66
1006.68	1626.09
1006.84	1755.11
1007.00	1560.55
1007.16	1621.99
1007.32	1593.32
1007.48	1624.04
1007.64	1667.05
1007.79	1621.99
1007.95	1642.47
1008.11	1636.33
1008.27	1560.55
1008.43	1564.65
1008.59	1572.84
1008.75	1650.66
1008.91	1685.48
1009.06	1576.94
1009.22	1576.94
1009.38	1644.52
1009.54	1691.62
1009.70	1632.23
1009.86	1619.94
1010.01	1609.70
1010.17	1533.93
1010.33	1574.89
1010.49	1576.94
1010.65	1701.86
1010.81	1544.17
1010.96	1619.94
1011.12	1601.51
1011.28	1542.12
1011.44	1681.38
1011.60	1591.27
1011.76	1568.74
1011.91	1689.57
1012.07	1548.26
1012.23	1593.32
1012.39	1568.74
1012.55	1642.47
1012.71	1615.85
1012.86	1535.98
1013.02	1617.90
1013.18	1570.79
1013.34	1560.55
1013.50	1599.46
1013.65	1658.85
1013.81	1511.40
1013.97	1601.51
1014.13	1568.74
1014.29	1587.18
1014.44	1716.20
1014.60	1587.18
1014.76	1595.37
1014.92	1550.31
1015.07	1601.51
1015.23	1626.09
1015.39	1533.93
1015.55	1605.61
1015.71	1638.38
1015.86	1599.46
1016.02	1628.14
1016.18	1581.03
1016.34	1609.70
1016.49	1572.84
1016.65	1658.85
1016.81	1611.75
1016.97	1650.66
1017.12	1609.70
1017.28	1597.42
1017.44	1562.60
1017.60	1585.13
1017.75	1630.18
1017.91	1667.05
1018.07	1576.94
1018.23	1662.95
1018.38	1597.42
1018.54	1581.03
1018.70	1650.66
1018.86	1640.42
1019.01	1556.46
1019.17	1624.04
1019.33	1642.47
1019.49	1628.14
1019.64	1695.72
1019.80	1597.42
1019.96	1656.81
1020.12	1660.90
1020.27	1613.80
1020.43	1638.38
1020.59	1574.89
1020.74	1685.48
1020.90	1636.33
1021.06	1593.32
1021.22	1548.26
1021.37	1650.66
1021.53	1585.13
1021.69	1613.80
1021.84	1568.74
1022.00	1687.53
1022.16	1638.38
1022.31	1630.18
1022.47	1667.05
1022.63	1617.90
1022.79	1568.74
1022.94	1630.18
1023.10	1667.05
1023.26	1667.05
1023.41	1619.94
1023.57	1576.94
1023.73	1640.42
1023.88	1640.42
1024.04	1607.66
1024.20	1603.56
1024.35	1691.62
1024.51	1662.95
1024.67	1574.89
1024.82	1648.61
1024.98	1581.03
1025.14	1642.47
1025.29	1675.24
1025.45	1667.05
1025.61	1538.02
1025.76	1609.70
1025.92	1589.22
1026.08	1591.27
1026.23	1656.81
1026.39	1652.71
1026.55	1540.07
1026.70	1597.42
1026.86	1540.07
1027.02	1658.85
1027.17	1617.90
1027.33	1640.42
1027.48	1621.99
1027.64	1605.61
1027.80	1531.88
1027.95	1632.23
1028.11	1558.50
1028.27	1679.33
1028.42	1583.08
1028.58	1591.27
1028.73	1611.75
1028.89	1562.60
1029.05	1736.68
1029.20	1671.14
>>>>>End Processed Spectral Data<<<<<
