SpectraSuite Data File
++++++++++++++++++++++++++++++++++++
Date: Fri Jun 02 14:57:16 CEST 2017
User: INFO_000
Dark Spectrum Present: No
Reference Spectrum Present: No
Number of Sampled Component Spectra: 1
Spectrometers: USB4H00879
Integration Time (usec): 80000 (USB4H00879)
Spectra Averaged: 1 (USB4H00879)
Boxcar Smoothing: 0 (USB4H00879)
Correct for Electrical Dark: No (USB4H00879)
Strobe/Lamp Enabled: No (USB4H00879)
Correct for Detector Non-linearity: No (USB4H00879)
Correct for Stray Light: No (USB4H00879)
Number of Pixels in Processed Spectrum: 3648
>>>>>Begin Processed Spectral Data<<<<<
345.13	1259.50
345.34	1259.50
345.56	1259.50
345.78	1224.69
345.99	1282.03
346.21	1683.43
346.42	1732.58
346.64	1642.47
346.86	1761.25
347.07	1574.89
347.29	1675.24
347.50	1615.85
347.72	1734.63
347.94	1748.97
348.15	1617.90
348.37	1574.89
348.59	1695.72
348.80	1654.76
349.02	1615.85
349.23	1744.87
349.45	1710.05
349.67	1761.25
349.88	1660.90
350.10	1869.80
350.31	1648.61
350.53	1712.10
350.75	1748.97
350.96	1660.90
351.18	1742.82
351.39	1708.01
351.61	1632.23
351.82	1753.06
352.04	1746.92
352.26	1658.85
352.47	1697.77
352.69	1763.30
352.90	1658.85
353.12	1630.18
353.34	1794.02
353.55	1822.69
353.77	1703.91
353.98	1652.71
354.20	1679.33
354.41	1759.21
354.63	1724.39
354.85	1882.08
355.06	1677.29
355.28	1601.51
355.49	1740.77
355.71	1726.44
355.92	1714.15
356.14	1808.36
356.35	1699.81
356.57	1658.85
356.79	1742.82
357.00	1681.38
357.22	1783.78
357.43	1660.90
357.65	1773.54
357.86	1781.73
358.08	1757.16
358.29	1691.62
358.51	1695.72
358.72	1837.03
358.94	1683.43
359.16	1646.57
359.37	1732.58
359.59	1769.44
359.80	1781.73
360.02	1800.16
360.23	1753.06
360.45	1828.84
360.66	1681.38
360.88	1673.19
361.09	1708.01
361.31	1783.78
361.52	1753.06
361.74	1818.60
361.95	1816.55
362.17	1740.77
362.38	1808.36
362.60	1773.54
362.81	1705.96
363.03	1638.38
363.24	1726.44
363.46	1785.83
363.67	1808.36
363.89	1701.86
364.10	1765.35
364.32	1697.77
364.53	1708.01
364.75	1638.38
364.96	1732.58
365.18	1716.20
365.39	1697.77
365.61	1748.97
365.82	1812.45
366.04	1714.15
366.25	1744.87
366.47	1796.07
366.68	1779.68
366.90	1687.53
367.11	1767.40
367.33	1722.34
367.54	1714.15
367.76	1693.67
367.97	1746.92
368.19	1691.62
368.40	1654.76
368.62	1701.86
368.83	1611.75
369.05	1738.73
369.26	1607.66
369.48	1646.57
369.69	1658.85
369.91	1757.16
370.12	1691.62
370.33	1746.92
370.55	1619.94
370.76	1712.10
370.98	1779.68
371.19	1730.53
371.41	1638.38
371.62	1740.77
371.84	1609.70
372.05	1839.08
372.27	1658.85
372.48	1646.57
372.69	1710.05
372.91	1771.49
373.12	1769.44
373.34	1701.86
373.55	1787.88
373.77	1683.43
373.98	1609.70
374.20	1789.92
374.41	1845.22
374.62	1683.43
374.84	1728.49
375.05	1765.35
375.27	1683.43
375.48	1642.47
375.70	1724.39
375.91	1683.43
376.12	1869.80
376.34	1689.57
376.55	1714.15
376.77	1734.63
376.98	1634.28
377.19	1689.57
377.41	1628.14
377.62	1630.18
377.84	1806.31
378.05	1757.16
378.27	1642.47
378.48	1822.69
378.69	1818.60
378.91	1732.58
379.12	1726.44
379.34	1765.35
379.55	1751.01
379.76	1806.31
379.98	1701.86
380.19	1699.81
380.41	1673.19
380.62	1748.97
380.83	1685.48
381.05	1591.27
381.26	1841.12
381.47	1638.38
381.69	1667.05
381.90	1763.30
382.12	1669.09
382.33	1652.71
382.54	1667.05
382.76	1724.39
382.97	1787.88
383.19	1660.90
383.40	1791.97
383.61	1714.15
383.83	1701.86
384.04	1658.85
384.25	1671.14
384.47	1806.31
384.68	1771.49
384.89	1665.00
385.11	1578.98
385.32	1634.28
385.54	1738.73
385.75	1662.95
385.96	1687.53
386.18	1650.66
386.39	1683.43
386.60	1660.90
386.82	1720.29
387.03	1648.61
387.24	1746.92
387.46	1667.05
387.67	1665.00
387.88	1703.91
388.10	1681.38
388.31	1761.25
388.52	1769.44
388.74	1765.35
388.95	1654.76
389.16	1724.39
389.38	1644.52
389.59	1716.20
389.80	1746.92
390.02	1716.20
390.23	1785.83
390.44	1691.62
390.66	1658.85
390.87	1585.13
391.08	1740.77
391.30	1822.69
391.51	1757.16
391.72	1687.53
391.94	1771.49
392.15	1683.43
392.36	1646.57
392.58	1697.77
392.79	1681.38
393.00	1798.12
393.22	1687.53
393.43	1685.48
393.64	1765.35
393.85	1802.21
394.07	1705.96
394.28	1710.05
394.49	1751.01
394.71	1701.86
394.92	1798.12
395.13	1642.47
395.35	1626.09
395.56	1679.33
395.77	1730.53
395.98	1701.86
396.20	1654.76
396.41	1736.68
396.62	1732.58
396.84	1667.05
397.05	1654.76
397.26	1685.48
397.47	1787.88
397.69	1652.71
397.90	1845.22
398.11	1761.25
398.32	1652.71
398.54	1697.77
398.75	1673.19
398.96	1712.10
399.18	1765.35
399.39	1753.06
399.60	1732.58
399.81	1701.86
400.03	1665.00
400.24	1890.28
400.45	1763.30
400.66	1722.34
400.88	1648.61
401.09	1853.41
401.30	1652.71
401.51	1767.40
401.73	1718.25
401.94	1740.77
402.15	1720.29
402.36	1773.54
402.58	1697.77
402.79	1759.21
403.00	1675.24
403.21	1834.98
403.43	1839.08
403.64	1722.34
403.85	1736.68
404.06	1710.05
404.27	1667.05
404.49	1662.95
404.70	1654.76
404.91	1736.68
405.12	1765.35
405.34	1722.34
405.55	1822.69
405.76	1599.46
405.97	1667.05
406.19	1779.68
406.40	1642.47
406.61	1722.34
406.82	1662.95
407.03	1740.77
407.25	1669.09
407.46	1683.43
407.67	1834.98
407.88	1818.60
408.09	1730.53
408.31	1683.43
408.52	1757.16
408.73	1662.95
408.94	1617.90
409.15	1753.06
409.37	1751.01
409.58	1779.68
409.79	1712.10
410.00	1837.03
410.21	1697.77
410.43	1757.16
410.64	1576.94
410.85	1757.16
411.06	1726.44
411.27	1748.97
411.48	1794.02
411.70	1683.43
411.91	1662.95
412.12	1806.31
412.33	1734.63
412.54	1662.95
412.76	1767.40
412.97	1710.05
413.18	1687.53
413.39	1732.58
413.60	1751.01
413.81	1748.97
414.03	1681.38
414.24	1658.85
414.45	1847.27
414.66	1615.85
414.87	1718.25
415.08	1732.58
415.30	1732.58
415.51	1732.58
415.72	1701.86
415.93	1669.09
416.14	1755.11
416.35	1765.35
416.56	1777.64
416.78	1712.10
416.99	1744.87
417.20	1791.97
417.41	1757.16
417.62	1730.53
417.83	1748.97
418.04	1695.72
418.26	1763.30
418.47	1769.44
418.68	1679.33
418.89	1787.88
419.10	1935.33
419.31	1695.72
419.52	1681.38
419.73	1753.06
419.95	1665.00
420.16	1675.24
420.37	1630.18
420.58	1765.35
420.79	1601.51
421.00	1687.53
421.21	1722.34
421.42	1724.39
421.63	1767.40
421.85	1693.67
422.06	1662.95
422.27	1728.49
422.48	1695.72
422.69	1675.24
422.90	1701.86
423.11	1691.62
423.32	1708.01
423.53	1767.40
423.75	1699.81
423.96	1808.36
424.17	1744.87
424.38	1751.01
424.59	1742.82
424.80	1658.85
425.01	1714.15
425.22	1611.75
425.43	1742.82
425.64	1794.02
425.85	1783.78
426.06	1714.15
426.28	1728.49
426.49	1581.03
426.70	1617.90
426.91	1714.15
427.12	1658.85
427.33	1667.05
427.54	1683.43
427.75	1611.75
427.96	1824.74
428.17	1773.54
428.38	1695.72
428.59	1712.10
428.80	1685.48
429.01	1634.28
429.23	1705.96
429.44	1638.38
429.65	1736.68
429.86	1667.05
430.07	1689.57
430.28	1619.94
430.49	1773.54
430.70	1773.54
430.91	1775.59
431.12	1634.28
431.33	1656.81
431.54	1759.21
431.75	1673.19
431.96	1701.86
432.17	1724.39
432.38	1710.05
432.59	1718.25
432.80	1783.78
433.01	1708.01
433.22	1683.43
433.43	1740.77
433.64	1781.73
433.85	1783.78
434.06	1783.78
434.27	1644.52
434.49	1714.15
434.70	1755.11
434.91	1634.28
435.12	1712.10
435.33	1658.85
435.54	1724.39
435.75	1593.32
435.96	1734.63
436.17	1683.43
436.38	1777.64
436.59	1681.38
436.80	1730.53
437.01	1794.02
437.22	1767.40
437.43	1720.29
437.64	1656.81
437.85	1771.49
438.06	1726.44
438.27	1669.09
438.48	1683.43
438.69	1794.02
438.90	1605.61
439.11	1624.04
439.32	1751.01
439.53	1609.70
439.74	1644.52
439.95	1726.44
440.16	1619.94
440.37	1724.39
440.57	1646.57
440.78	1712.10
440.99	1685.48
441.20	1681.38
441.41	1581.03
441.62	1665.00
441.83	1609.70
442.04	1611.75
442.25	1628.14
442.46	1650.66
442.67	1607.66
442.88	1822.69
443.09	1673.19
443.30	1607.66
443.51	1677.29
443.72	1775.59
443.93	1687.53
444.14	1771.49
444.35	1701.86
444.56	1695.72
444.77	1710.05
444.98	1689.57
445.19	1728.49
445.40	1630.18
445.61	1703.91
445.81	1558.50
446.02	1765.35
446.23	1738.73
446.44	1650.66
446.65	1769.44
446.86	1708.01
447.07	1861.60
447.28	1679.33
447.49	1730.53
447.70	1650.66
447.91	1757.16
448.12	1685.48
448.33	1708.01
448.54	1712.10
448.74	1839.08
448.95	1636.33
449.16	1697.77
449.37	1730.53
449.58	1728.49
449.79	1699.81
450.00	1757.16
450.21	1681.38
450.42	1728.49
450.63	1730.53
450.84	1634.28
451.05	1699.81
451.25	1660.90
451.46	1665.00
451.67	1775.59
451.88	1720.29
452.09	1708.01
452.30	1683.43
452.51	1718.25
452.72	1779.68
452.93	1773.54
453.13	1632.23
453.34	1576.94
453.55	1763.30
453.76	1656.81
453.97	1634.28
454.18	1636.33
454.39	1626.09
454.60	1693.67
454.81	1691.62
455.01	1753.06
455.22	1611.75
455.43	1603.56
455.64	1773.54
455.85	1695.72
456.06	1808.36
456.27	1714.15
456.48	1757.16
456.68	1757.16
456.89	1771.49
457.10	1712.10
457.31	1736.68
457.52	1775.59
457.73	1710.05
457.94	1730.53
458.14	1632.23
458.35	1718.25
458.56	1665.00
458.77	1748.97
458.98	1624.04
459.19	1755.11
459.39	1683.43
459.60	1660.90
459.81	1746.92
460.02	1708.01
460.23	1734.63
460.44	1681.38
460.65	1705.96
460.85	1662.95
461.06	1755.11
461.27	1722.34
461.48	1642.47
461.69	1681.38
461.89	1619.94
462.10	1716.20
462.31	1542.12
462.52	1619.94
462.73	1701.86
462.94	1669.09
463.14	1650.66
463.35	1673.19
463.56	1791.97
463.77	1755.11
463.98	1624.04
464.18	1630.18
464.39	1781.73
464.60	1738.73
464.81	1597.42
465.02	1804.26
465.23	1695.72
465.43	1691.62
465.64	1671.14
465.85	1630.18
466.06	1654.76
466.27	1708.01
466.47	1667.05
466.68	1716.20
466.89	1667.05
467.10	1617.90
467.30	1665.00
467.51	1800.16
467.72	1781.73
467.93	1556.46
468.14	1626.09
468.34	1730.53
468.55	1669.09
468.76	1820.64
468.97	1691.62
469.17	1834.98
469.38	1759.21
469.59	1665.00
469.80	1675.24
470.01	1697.77
470.21	1748.97
470.42	1757.16
470.63	1693.67
470.84	1753.06
471.04	1665.00
471.25	1783.78
471.46	1693.67
471.67	1777.64
471.87	1662.95
472.08	1757.16
472.29	1681.38
472.50	1773.54
472.70	1665.00
472.91	1644.52
473.12	1656.81
473.33	1673.19
473.53	1673.19
473.74	1591.27
473.95	1632.23
474.16	1654.76
474.36	1634.28
474.57	1753.06
474.78	1673.19
474.99	1763.30
475.19	1730.53
475.40	1755.11
475.61	1654.76
475.81	1775.59
476.02	1665.00
476.23	1812.45
476.44	1656.81
476.64	1669.09
476.85	1720.29
477.06	1665.00
477.27	1632.23
477.47	1703.91
477.68	1669.09
477.89	1753.06
478.09	1720.29
478.30	1740.77
478.51	1654.76
478.71	1593.32
478.92	1775.59
479.13	1765.35
479.34	1652.71
479.54	1683.43
479.75	1638.38
479.96	1724.39
480.16	1708.01
480.37	1665.00
480.58	1652.71
480.78	1798.12
480.99	1624.04
481.20	1728.49
481.41	1691.62
481.61	1791.97
481.82	1806.31
482.03	1658.85
482.23	1613.80
482.44	1761.25
482.65	1808.36
482.85	1718.25
483.06	1687.53
483.27	1728.49
483.47	1687.53
483.68	1685.48
483.89	1736.68
484.09	1703.91
484.30	1705.96
484.51	1693.67
484.71	1687.53
484.92	1628.14
485.13	1738.73
485.33	1587.18
485.54	1611.75
485.75	1710.05
485.95	1728.49
486.16	1656.81
486.37	1710.05
486.57	1673.19
486.78	1710.05
486.98	1652.71
487.19	1701.86
487.40	1777.64
487.60	1617.90
487.81	1671.14
488.02	1615.85
488.22	1669.09
488.43	1810.40
488.64	1630.18
488.84	1585.13
489.05	1759.21
489.25	1611.75
489.46	1740.77
489.67	1658.85
489.87	1757.16
490.08	1732.58
490.29	1650.66
490.49	1816.55
490.70	1681.38
490.90	1734.63
491.11	1738.73
491.32	1615.85
491.52	1619.94
491.73	1642.47
491.94	1675.24
492.14	1652.71
492.35	1677.29
492.55	1761.25
492.76	1675.24
492.97	1736.68
493.17	1722.34
493.38	1740.77
493.58	1734.63
493.79	1697.77
494.00	1683.43
494.20	1638.38
494.41	1771.49
494.61	1724.39
494.82	1708.01
495.02	1624.04
495.23	1734.63
495.44	1708.01
495.64	1816.55
495.85	1640.42
496.05	1699.81
496.26	1677.29
496.47	1726.44
496.67	1652.71
496.88	1697.77
497.08	1632.23
497.29	1691.62
497.49	1781.73
497.70	1697.77
497.91	1703.91
498.11	1832.93
498.32	1695.72
498.52	1683.43
498.73	1703.91
498.93	1687.53
499.14	1763.30
499.34	1730.53
499.55	1779.68
499.76	1624.04
499.96	1763.30
500.17	1728.49
500.37	1814.50
500.58	1691.62
500.78	1677.29
500.99	1658.85
501.19	1714.15
501.40	1753.06
501.60	1599.46
501.81	1712.10
502.02	1728.49
502.22	1687.53
502.43	1734.63
502.63	1773.54
502.84	1728.49
503.04	1683.43
503.25	1724.39
503.45	1699.81
503.66	1689.57
503.86	1716.20
504.07	1759.21
504.27	1576.94
504.48	1724.39
504.68	1734.63
504.89	1847.27
505.09	1624.04
505.30	1652.71
505.50	1632.23
505.71	1662.95
505.91	1718.25
506.12	1722.34
506.32	1726.44
506.53	1736.68
506.73	1671.14
506.94	1712.10
507.14	1693.67
507.35	1849.32
507.55	1697.77
507.76	1722.34
507.96	1705.96
508.17	1716.20
508.37	1652.71
508.58	1802.21
508.78	1724.39
508.99	1787.88
509.19	1699.81
509.40	1740.77
509.60	1716.20
509.81	1748.97
510.01	1615.85
510.22	1638.38
510.42	1761.25
510.63	1738.73
510.83	1730.53
511.04	1701.86
511.24	1775.59
511.44	1738.73
511.65	1658.85
511.85	1712.10
512.06	1722.34
512.26	1683.43
512.47	1730.53
512.67	1619.94
512.88	1726.44
513.08	1630.18
513.29	1744.87
513.49	1662.95
513.69	1710.05
513.90	1673.19
514.10	1728.49
514.31	1714.15
514.51	1679.33
514.72	1716.20
514.92	1708.01
515.13	1617.90
515.33	1699.81
515.53	1689.57
515.74	1738.73
515.94	1763.30
516.15	1763.30
516.35	1630.18
516.56	1628.14
516.76	1601.51
516.96	1712.10
517.17	1705.96
517.37	1765.35
517.58	1603.56
517.78	1638.38
517.99	1822.69
518.19	1812.45
518.39	1744.87
518.60	1751.01
518.80	1697.77
519.01	1763.30
519.21	1712.10
519.41	1773.54
519.62	1689.57
519.82	1630.18
520.03	1708.01
520.23	1714.15
520.43	1697.77
520.64	1757.16
520.84	1767.40
521.05	1513.45
521.25	1773.54
521.45	1703.91
521.66	1665.00
521.86	1728.49
522.07	1681.38
522.27	1720.29
522.47	1648.61
522.68	1665.00
522.88	1665.00
523.08	1732.58
523.29	1515.50
523.49	1615.85
523.70	1662.95
523.90	1619.94
524.10	1675.24
524.31	1730.53
524.51	1597.42
524.71	1740.77
524.92	1695.72
525.12	1554.41
525.33	1746.92
525.53	1714.15
525.73	1791.97
525.94	1708.01
526.14	1755.11
526.34	1603.56
526.55	1615.85
526.75	1732.58
526.95	1789.92
527.16	1675.24
527.36	1675.24
527.56	1783.78
527.77	1687.53
527.97	1693.67
528.17	1669.09
528.38	1724.39
528.58	1703.91
528.78	1656.81
528.99	1656.81
529.19	1712.10
529.39	1675.24
529.60	1626.09
529.80	1632.23
530.00	1712.10
530.21	1675.24
530.41	1755.11
530.61	1834.98
530.82	1701.86
531.02	1728.49
531.22	1742.82
531.43	1673.19
531.63	1724.39
531.83	1728.49
532.04	1722.34
532.24	1681.38
532.44	1662.95
532.64	1802.21
532.85	1689.57
533.05	1751.01
533.25	1568.74
533.46	1763.30
533.66	1699.81
533.86	1638.38
534.07	1710.05
534.27	1722.34
534.47	1716.20
534.67	1650.66
534.88	1665.00
535.08	1724.39
535.28	1703.91
535.49	1648.61
535.69	1736.68
535.89	1710.05
536.09	1789.92
536.30	1822.69
536.50	1648.61
536.70	1720.29
536.91	1634.28
537.11	1746.92
537.31	1624.04
537.51	1701.86
537.72	1724.39
537.92	1734.63
538.12	1689.57
538.32	1802.21
538.53	1691.62
538.73	1634.28
538.93	1708.01
539.13	1673.19
539.34	1720.29
539.54	1601.51
539.74	1826.79
539.94	1726.44
540.15	1755.11
540.35	1675.24
540.55	1736.68
540.75	1677.29
540.96	1656.81
541.16	1726.44
541.36	1734.63
541.56	1746.92
541.77	1814.50
541.97	1695.72
542.17	1662.95
542.37	1804.26
542.58	1703.91
542.78	1753.06
542.98	1683.43
543.18	1757.16
543.38	1779.68
543.59	1716.20
543.79	1646.57
543.99	1624.04
544.19	1697.77
544.40	1765.35
544.60	1691.62
544.80	1677.29
545.00	1603.56
545.20	1800.16
545.41	1716.20
545.61	1566.70
545.81	1675.24
546.01	1695.72
546.21	1732.58
546.42	1656.81
546.62	1785.83
546.82	1599.46
547.02	1697.77
547.22	1785.83
547.43	1777.64
547.63	1699.81
547.83	1640.42
548.03	1632.23
548.23	1730.53
548.44	1705.96
548.64	1693.67
548.84	1703.91
549.04	1728.49
549.24	1789.92
549.45	2025.44
549.65	1591.27
549.85	1734.63
550.05	1619.94
550.25	1572.84
550.45	1781.73
550.66	1695.72
550.86	1621.99
551.06	1683.43
551.26	1699.81
551.46	1695.72
551.66	1654.76
551.87	1732.58
552.07	1656.81
552.27	1656.81
552.47	1822.69
552.67	1677.29
552.87	1708.01
553.07	1757.16
553.28	1718.25
553.48	1728.49
553.68	1662.95
553.88	1800.16
554.08	1714.15
554.28	1597.42
554.48	1724.39
554.69	1679.33
554.89	1724.39
555.09	1587.18
555.29	1609.70
555.49	1640.42
555.69	1687.53
555.89	1689.57
556.10	1796.07
556.30	1671.14
556.50	1781.73
556.70	1787.88
556.90	1689.57
557.10	1775.59
557.30	1791.97
557.50	1640.42
557.70	1712.10
557.91	1677.29
558.11	1671.14
558.31	1787.88
558.51	1691.62
558.71	1716.20
558.91	1679.33
559.11	1687.53
559.31	1679.33
559.51	1617.90
559.72	1753.06
559.92	1642.47
560.12	1607.66
560.32	1810.40
560.52	1775.59
560.72	1669.09
560.92	1718.25
561.12	1718.25
561.32	1712.10
561.52	1675.24
561.72	1884.13
561.93	1708.01
562.13	1642.47
562.33	1642.47
562.53	1736.68
562.73	1656.81
562.93	1679.33
563.13	1748.97
563.33	1851.36
563.53	1748.97
563.73	1732.58
563.93	1761.25
564.13	1794.02
564.33	1679.33
564.53	1777.64
564.74	1572.84
564.94	1738.73
565.14	1705.96
565.34	1742.82
565.54	1775.59
565.74	1652.71
565.94	1691.62
566.14	1673.19
566.34	1703.91
566.54	1683.43
566.74	1656.81
566.94	1759.21
567.14	1687.53
567.34	1656.81
567.54	1785.83
567.74	1791.97
567.94	1658.85
568.14	1658.85
568.34	1859.56
568.54	1595.37
568.74	1753.06
568.94	1816.55
569.14	1875.94
569.34	1720.29
569.54	1722.34
569.75	1687.53
569.95	1734.63
570.15	1740.77
570.35	1720.29
570.55	1714.15
570.75	1773.54
570.95	1751.01
571.15	1679.33
571.35	1662.95
571.55	1740.77
571.75	1761.25
571.95	1699.81
572.15	1708.01
572.35	1740.77
572.55	1714.15
572.75	1708.01
572.95	1691.62
573.15	1705.96
573.35	1765.35
573.55	1755.11
573.75	1615.85
573.95	1849.32
574.15	1677.29
574.35	1673.19
574.55	1662.95
574.75	1630.18
574.95	1656.81
575.15	1732.58
575.34	1703.91
575.54	1687.53
575.74	1693.67
575.94	1636.33
576.14	1636.33
576.34	1726.44
576.54	1679.33
576.74	1736.68
576.94	1638.38
577.14	1777.64
577.34	1808.36
577.54	1683.43
577.74	1611.75
577.94	1726.44
578.14	1601.51
578.34	1732.58
578.54	1591.27
578.74	1736.68
578.94	1714.15
579.14	1730.53
579.34	1605.61
579.54	1755.11
579.74	1681.38
579.94	1673.19
580.13	1765.35
580.33	1601.51
580.53	1726.44
580.73	1665.00
580.93	1742.82
581.13	1624.04
581.33	1689.57
581.53	1687.53
581.73	1753.06
581.93	1572.84
582.13	1746.92
582.33	1703.91
582.53	1599.46
582.73	1714.15
582.92	1703.91
583.12	1814.50
583.32	1621.99
583.52	1761.25
583.72	1820.64
583.92	1744.87
584.12	1605.61
584.32	1681.38
584.52	1667.05
584.72	1636.33
584.92	1738.73
585.11	1695.72
585.31	1703.91
585.51	1648.61
585.71	1740.77
585.91	1806.31
586.11	1705.96
586.31	1695.72
586.51	1703.91
586.71	1714.15
586.91	1744.87
587.10	1720.29
587.30	1785.83
587.50	1671.14
587.70	1673.19
587.90	1685.48
588.10	1755.11
588.30	1675.24
588.50	1685.48
588.69	1601.51
588.89	1732.58
589.09	1730.53
589.29	1634.28
589.49	1650.66
589.69	1605.61
589.89	1748.97
590.08	1720.29
590.28	1601.51
590.48	1738.73
590.68	1675.24
590.88	1746.92
591.08	1779.68
591.28	1769.44
591.47	1722.34
591.67	1683.43
591.87	1738.73
592.07	1810.40
592.27	1650.66
592.47	1613.80
592.67	1656.81
592.86	1738.73
593.06	1771.49
593.26	1773.54
593.46	1882.08
593.66	1634.28
593.86	1777.64
594.05	1804.26
594.25	1691.62
594.45	1609.70
594.65	1773.54
594.85	1804.26
595.05	1712.10
595.24	1662.95
595.44	1744.87
595.64	1613.80
595.84	1808.36
596.04	1726.44
596.23	1675.24
596.43	1675.24
596.63	1722.34
596.83	1712.10
597.03	1925.09
597.22	1699.81
597.42	1748.97
597.62	1730.53
597.82	1708.01
598.02	1716.20
598.21	1701.86
598.41	1669.09
598.61	1691.62
598.81	1642.47
599.01	1693.67
599.20	1753.06
599.40	1728.49
599.60	1765.35
599.80	1728.49
600.00	1785.83
600.19	1722.34
600.39	1660.90
600.59	1740.77
600.79	1806.31
600.98	1699.81
601.18	1710.05
601.38	1755.11
601.58	1621.99
601.78	1740.77
601.97	1791.97
602.17	1849.32
602.37	1677.29
602.57	1779.68
602.76	1699.81
602.96	1669.09
603.16	1679.33
603.36	1683.43
603.55	1642.47
603.75	1716.20
603.95	1703.91
604.15	1773.54
604.34	1593.32
604.54	1705.96
604.74	1814.50
604.94	1755.11
605.13	1632.23
605.33	1640.42
605.53	1677.29
605.73	1759.21
605.92	1761.25
606.12	1708.01
606.32	1738.73
606.52	1751.01
606.71	1691.62
606.91	1722.34
607.11	1701.86
607.30	1755.11
607.50	1714.15
607.70	1787.88
607.90	1722.34
608.09	1613.80
608.29	1794.02
608.49	1812.45
608.68	1685.48
608.88	1650.66
609.08	1679.33
609.28	1791.97
609.47	1771.49
609.67	1689.57
609.87	1728.49
610.06	1757.16
610.26	1781.73
610.46	1877.99
610.66	1710.05
610.85	1634.28
611.05	1767.40
611.25	1732.58
611.44	1673.19
611.64	1687.53
611.84	1726.44
612.03	1691.62
612.23	1681.38
612.43	1736.68
612.62	1691.62
612.82	1798.12
613.02	1771.49
613.21	1693.67
613.41	1753.06
613.61	1691.62
613.80	1634.28
614.00	1701.86
614.20	1794.02
614.39	1800.16
614.59	1755.11
614.79	1613.80
614.98	1699.81
615.18	1603.56
615.38	1763.30
615.57	1673.19
615.77	1839.08
615.97	1615.85
616.16	1701.86
616.36	1726.44
616.56	1710.05
616.75	1695.72
616.95	1642.47
617.15	1834.98
617.34	1667.05
617.54	1794.02
617.74	1816.55
617.93	1814.50
618.13	1617.90
618.32	1710.05
618.52	1748.97
618.72	1650.66
618.91	1828.84
619.11	1808.36
619.31	1751.01
619.50	1714.15
619.70	1710.05
619.90	1695.72
620.09	1703.91
620.29	1667.05
620.48	1755.11
620.68	1732.58
620.88	1845.22
621.07	1761.25
621.27	1746.92
621.46	1748.97
621.66	1751.01
621.86	1671.14
622.05	1689.57
622.25	1871.84
622.44	1681.38
622.64	1740.77
622.84	1742.82
623.03	1671.14
623.23	1714.15
623.42	1763.30
623.62	1791.97
623.82	1851.36
624.01	1710.05
624.21	1761.25
624.40	1783.78
624.60	1708.01
624.80	1716.20
624.99	1841.12
625.19	1720.29
625.38	1716.20
625.58	1757.16
625.77	1726.44
625.97	1775.59
626.17	1726.44
626.36	1751.01
626.56	1744.87
626.75	1597.42
626.95	1785.83
627.14	1712.10
627.34	1802.21
627.54	1800.16
627.73	1794.02
627.93	1679.33
628.12	1730.53
628.32	1757.16
628.51	1644.52
628.71	1839.08
628.90	1806.31
629.10	1832.93
629.30	1662.95
629.49	1720.29
629.69	1748.97
629.88	1722.34
630.08	1796.07
630.27	1906.66
630.47	1705.96
630.66	1671.14
630.86	1714.15
631.05	1640.42
631.25	1726.44
631.44	1865.70
631.64	1675.24
631.84	1646.57
632.03	1761.25
632.23	1789.92
632.42	1716.20
632.62	1671.14
632.81	1755.11
633.01	1744.87
633.20	1896.42
633.40	1794.02
633.59	1693.67
633.79	1697.77
633.98	1783.78
634.18	1726.44
634.37	1859.56
634.57	1642.47
634.76	1681.38
634.96	1796.07
635.15	1900.52
635.35	1728.49
635.54	1736.68
635.74	1771.49
635.93	1683.43
636.13	1613.80
636.32	1794.02
636.52	1736.68
636.71	1720.29
636.91	1771.49
637.10	1818.60
637.30	1720.29
637.49	1783.78
637.69	1757.16
637.88	1738.73
638.08	1724.39
638.27	1716.20
638.46	1679.33
638.66	1679.33
638.85	1755.11
639.05	1781.73
639.24	1851.36
639.44	1722.34
639.63	1777.64
639.83	1800.16
640.02	1728.49
640.22	1693.67
640.41	1673.19
640.61	1769.44
640.80	1738.73
640.99	1681.38
641.19	1757.16
641.38	1845.22
641.58	1736.68
641.77	1794.02
641.97	1638.38
642.16	1685.48
642.36	1785.83
642.55	1697.77
642.74	1748.97
642.94	1708.01
643.13	1736.68
643.33	1818.60
643.52	1800.16
643.72	1800.16
643.91	1728.49
644.10	1828.84
644.30	1646.57
644.49	1656.81
644.69	1769.44
644.88	1687.53
645.08	1814.50
645.27	1773.54
645.46	1714.15
645.66	1798.12
645.85	1683.43
646.05	1667.05
646.24	1685.48
646.43	1796.07
646.63	1763.30
646.82	1673.19
647.02	1785.83
647.21	1888.23
647.40	1679.33
647.60	1644.52
647.79	1751.01
647.99	1683.43
648.18	1724.39
648.37	1765.35
648.57	1767.40
648.76	1699.81
648.96	1699.81
649.15	1687.53
649.34	1783.78
649.54	1654.76
649.73	1734.63
649.92	1736.68
650.12	1773.54
650.31	1720.29
650.51	1783.78
650.70	1730.53
650.89	1730.53
651.09	1824.74
651.28	1740.77
651.47	1703.91
651.67	1804.26
651.86	1775.59
652.06	1708.01
652.25	1748.97
652.44	1615.85
652.64	1785.83
652.83	1751.01
653.02	1791.97
653.22	1751.01
653.41	1654.76
653.60	1716.20
653.80	1665.00
653.99	1724.39
654.18	1662.95
654.38	1673.19
654.57	1773.54
654.76	1710.05
654.96	1740.77
655.15	1703.91
655.34	1738.73
655.54	1570.79
655.73	1658.85
655.92	1591.27
656.12	1765.35
656.31	1818.60
656.50	1742.82
656.70	1759.21
656.89	1724.39
657.08	1652.71
657.28	1722.34
657.47	1691.62
657.66	1710.05
657.86	1738.73
658.05	1859.56
658.24	1748.97
658.43	1824.74
658.63	1595.37
658.82	1779.68
659.01	1755.11
659.21	1847.27
659.40	1748.97
659.59	1765.35
659.79	1703.91
659.98	1880.04
660.17	1798.12
660.36	1724.39
660.56	1740.77
660.75	1730.53
660.94	1755.11
661.14	1742.82
661.33	1716.20
661.52	1744.87
661.71	1753.06
661.91	1685.48
662.10	1759.21
662.29	1695.72
662.49	1740.77
662.68	1695.72
662.87	1683.43
663.06	1824.74
663.26	1714.15
663.45	1822.69
663.64	1691.62
663.83	1761.25
664.03	1773.54
664.22	1808.36
664.41	1847.27
664.60	1845.22
664.80	1642.47
664.99	1794.02
665.18	1738.73
665.37	1779.68
665.57	1902.56
665.76	1738.73
665.95	1705.96
666.14	1671.14
666.34	1705.96
666.53	1685.48
666.72	1658.85
666.91	1744.87
667.11	1671.14
667.30	1912.80
667.49	1748.97
667.68	1873.89
667.87	1701.86
668.07	1888.23
668.26	1546.22
668.45	1673.19
668.64	1679.33
668.84	1845.22
669.03	1669.09
669.22	1814.50
669.41	1667.05
669.60	1632.23
669.80	1806.31
669.99	1669.09
670.18	1722.34
670.37	1880.04
670.57	1746.92
670.76	1820.64
670.95	1785.83
671.14	1671.14
671.33	1675.24
671.53	1710.05
671.72	1687.53
671.91	1814.50
672.10	1714.15
672.29	1771.49
672.48	1681.38
672.68	1765.35
672.87	1724.39
673.06	1716.20
673.25	1765.35
673.44	1703.91
673.64	1644.52
673.83	1765.35
674.02	1716.20
674.21	1806.31
674.40	1705.96
674.59	1685.48
674.79	1654.76
674.98	1796.07
675.17	1812.45
675.36	1697.77
675.55	1708.01
675.74	1656.81
675.94	1851.36
676.13	1759.21
676.32	1679.33
676.51	1728.49
676.70	1593.32
676.89	1714.15
677.08	1693.67
677.28	1810.40
677.47	1712.10
677.66	1759.21
677.85	1648.61
678.04	1798.12
678.23	1720.29
678.42	1746.92
678.62	1718.25
678.81	1691.62
679.00	1726.44
679.19	1820.64
679.38	1748.97
679.57	1708.01
679.76	1705.96
679.96	1720.29
680.15	1785.83
680.34	1718.25
680.53	1814.50
680.72	1812.45
680.91	1693.67
681.10	1810.40
681.29	1718.25
681.48	1839.08
681.68	1759.21
681.87	1902.56
682.06	1773.54
682.25	1806.31
682.44	1716.20
682.63	1820.64
682.82	1533.93
683.01	1769.44
683.20	1683.43
683.39	1789.92
683.59	1683.43
683.78	1697.77
683.97	1751.01
684.16	1595.37
684.35	1595.37
684.54	1679.33
684.73	1769.44
684.92	1626.09
685.11	1777.64
685.30	1689.57
685.49	1738.73
685.69	1828.84
685.88	1714.15
686.07	1693.67
686.26	1638.38
686.45	1726.44
686.64	1748.97
686.83	1703.91
687.02	1816.55
687.21	1736.68
687.40	1685.48
687.59	1787.88
687.78	1710.05
687.97	1849.32
688.16	1767.40
688.35	1720.29
688.54	1652.71
688.74	1564.65
688.93	1818.60
689.12	1689.57
689.31	1888.23
689.50	1779.68
689.69	1667.05
689.88	1726.44
690.07	1716.20
690.26	1683.43
690.45	1624.04
690.64	1662.95
690.83	1654.76
691.02	1785.83
691.21	1781.73
691.40	1683.43
691.59	1734.63
691.78	1777.64
691.97	1726.44
692.16	1695.72
692.35	1781.73
692.54	1802.21
692.73	1671.14
692.92	1789.92
693.11	1714.15
693.30	1808.36
693.49	1630.18
693.68	1732.58
693.87	1650.66
694.06	1601.51
694.25	1687.53
694.44	1701.86
694.63	1673.19
694.82	1638.38
695.01	1742.82
695.20	1748.97
695.39	1693.67
695.58	1744.87
695.77	1658.85
695.96	1699.81
696.15	1660.90
696.34	1671.14
696.53	1683.43
696.72	1824.74
696.91	1703.91
697.10	1736.68
697.29	1703.91
697.48	1800.16
697.67	1777.64
697.86	1667.05
698.05	1712.10
698.24	1769.44
698.43	1656.81
698.62	1798.12
698.81	1662.95
699.00	1740.77
699.19	1744.87
699.38	1798.12
699.57	1703.91
699.76	1691.62
699.95	1728.49
700.14	1685.48
700.32	1808.36
700.51	1697.77
700.70	1755.11
700.89	1796.07
701.08	1734.63
701.27	1605.61
701.46	1804.26
701.65	1802.21
701.84	1724.39
702.03	1656.81
702.22	1800.16
702.41	1847.27
702.60	1650.66
702.79	1716.20
702.98	1650.66
703.17	1748.97
703.35	1757.16
703.54	1665.00
703.73	1714.15
703.92	1730.53
704.11	1650.66
704.30	1691.62
704.49	1710.05
704.68	1673.19
704.87	1736.68
705.06	1863.65
705.25	1736.68
705.43	1644.52
705.62	1681.38
705.81	1730.53
706.00	1732.58
706.19	1736.68
706.38	1636.33
706.57	1884.13
706.76	1701.86
706.95	1804.26
707.14	1802.21
707.32	1689.57
707.51	1710.05
707.70	1642.47
707.89	1705.96
708.08	1757.16
708.27	1689.57
708.46	1753.06
708.65	1617.90
708.84	1738.73
709.02	1685.48
709.21	1632.23
709.40	1732.58
709.59	1740.77
709.78	1683.43
709.97	1658.85
710.16	1738.73
710.34	1724.39
710.53	1732.58
710.72	1687.53
710.91	1757.16
711.10	1665.00
711.29	1650.66
711.48	1767.40
711.66	1683.43
711.85	1697.77
712.04	1820.64
712.23	1601.51
712.42	1765.35
712.61	1789.92
712.80	1746.92
712.98	1757.16
713.17	1724.39
713.36	1716.20
713.55	1828.84
713.74	1718.25
713.93	1896.42
714.11	1665.00
714.30	1673.19
714.49	1781.73
714.68	1738.73
714.87	1624.04
715.06	1855.46
715.24	1771.49
715.43	1738.73
715.62	1624.04
715.81	1724.39
716.00	1662.95
716.18	1660.90
716.37	1736.68
716.56	1677.29
716.75	1703.91
716.94	1720.29
717.12	1761.25
717.31	1785.83
717.50	1681.38
717.69	1687.53
717.88	1746.92
718.06	1728.49
718.25	1716.20
718.44	1624.04
718.63	1812.45
718.82	1581.03
719.00	1685.48
719.19	1865.70
719.38	1669.09
719.57	1748.97
719.76	1718.25
719.94	1697.77
720.13	1753.06
720.32	1763.30
720.51	1650.66
720.69	1800.16
720.88	1804.26
721.07	1705.96
721.26	1753.06
721.44	1777.64
721.63	1730.53
721.82	1660.90
722.01	1722.34
722.20	1697.77
722.38	1732.58
722.57	1576.94
722.76	1691.62
722.95	1609.70
723.13	1632.23
723.32	1720.29
723.51	1714.15
723.70	1753.06
723.88	1732.58
724.07	1662.95
724.26	1755.11
724.44	1675.24
724.63	1820.64
724.82	1742.82
725.01	1712.10
725.19	1804.26
725.38	1712.10
725.57	1634.28
725.76	1751.01
725.94	1726.44
726.13	1685.48
726.32	1732.58
726.51	1708.01
726.69	1628.14
726.88	1769.44
727.07	1775.59
727.25	1654.76
727.44	1679.33
727.63	1628.14
727.82	1634.28
728.00	1714.15
728.19	1720.29
728.38	1626.09
728.56	1671.14
728.75	1710.05
728.94	1714.15
729.12	1779.68
729.31	1779.68
729.50	1626.09
729.69	1740.77
729.87	1732.58
730.06	1720.29
730.25	1671.14
730.43	1755.11
730.62	1675.24
730.81	1703.91
730.99	1701.86
731.18	1708.01
731.37	1742.82
731.55	1740.77
731.74	1843.17
731.93	1708.01
732.11	1724.39
732.30	1751.01
732.49	1740.77
732.67	1624.04
732.86	1703.91
733.05	1636.33
733.23	1748.97
733.42	1695.72
733.61	1679.33
733.79	1683.43
733.98	1763.30
734.17	1683.43
734.35	1748.97
734.54	1775.59
734.73	1777.64
734.91	1597.42
735.10	1652.71
735.29	1787.88
735.47	1644.52
735.66	1705.96
735.84	1828.84
736.03	1710.05
736.22	1697.77
736.40	1677.29
736.59	1568.74
736.78	1652.71
736.96	1689.57
737.15	1716.20
737.33	1691.62
737.52	1687.53
737.71	1667.05
737.89	1712.10
738.08	1748.97
738.27	1728.49
738.45	1712.10
738.64	1689.57
738.82	1681.38
739.01	1722.34
739.20	1814.50
739.38	1751.01
739.57	1677.29
739.75	1789.92
739.94	1738.73
740.13	1546.22
740.31	1787.88
740.50	1734.63
740.68	1755.11
740.87	1714.15
741.06	1828.84
741.24	1761.25
741.43	1734.63
741.61	1601.51
741.80	1662.95
741.99	1714.15
742.17	1652.71
742.36	1568.74
742.54	1736.68
742.73	1845.22
742.91	1679.33
743.10	1708.01
743.29	1744.87
743.47	1769.44
743.66	1644.52
743.84	1677.29
744.03	1701.86
744.21	1679.33
744.40	1638.38
744.59	1683.43
744.77	1654.76
744.96	1677.29
745.14	1689.57
745.33	1636.33
745.51	1748.97
745.70	1777.64
745.88	1662.95
746.07	1695.72
746.26	1732.58
746.44	1679.33
746.63	1624.04
746.81	1820.64
747.00	1722.34
747.18	1697.77
747.37	1583.08
747.55	1810.40
747.74	2021.35
747.92	1685.48
748.11	1771.49
748.29	1644.52
748.48	1677.29
748.66	1708.01
748.85	1667.05
749.03	1738.73
749.22	1617.90
749.41	1738.73
749.59	1775.59
749.78	1718.25
749.96	1601.51
750.15	1691.62
750.33	1742.82
750.52	1654.76
750.70	1675.24
750.89	1785.83
751.07	1705.96
751.26	1734.63
751.44	1609.70
751.63	1730.53
751.81	1714.15
752.00	1720.29
752.18	1703.91
752.37	1755.11
752.55	1701.86
752.74	1681.38
752.92	1699.81
753.10	1722.34
753.29	1697.77
753.47	1802.21
753.66	1613.80
753.84	1675.24
754.03	1699.81
754.21	1634.28
754.40	1748.97
754.58	1820.64
754.77	1787.88
754.95	1775.59
755.14	1695.72
755.32	1728.49
755.51	1638.38
755.69	1642.47
755.88	1601.51
756.06	1726.44
756.24	1699.81
756.43	1810.40
756.61	1683.43
756.80	1683.43
756.98	1769.44
757.17	1744.87
757.35	1763.30
757.54	1757.16
757.72	1687.53
757.90	1683.43
758.09	1720.29
758.27	1646.57
758.46	1701.86
758.64	1818.60
758.83	1697.77
759.01	1718.25
759.19	1859.56
759.38	1748.97
759.56	1796.07
759.75	1671.14
759.93	1695.72
760.12	1607.66
760.30	1738.73
760.48	1630.18
760.67	1755.11
760.85	1601.51
761.04	1648.61
761.22	1714.15
761.40	1683.43
761.59	1724.39
761.77	1675.24
761.96	1687.53
762.14	1804.26
762.32	1755.11
762.51	1650.66
762.69	1671.14
762.88	1736.68
763.06	1597.42
763.24	1685.48
763.43	1646.57
763.61	1757.16
763.80	1728.49
763.98	1748.97
764.16	1638.38
764.35	1593.32
764.53	1744.87
764.72	1734.63
764.90	1673.19
765.08	1699.81
765.27	1671.14
765.45	1716.20
765.63	1695.72
765.82	1716.20
766.00	1712.10
766.18	1701.86
766.37	1656.81
766.55	1648.61
766.74	1691.62
766.92	1581.03
767.10	1691.62
767.29	1771.49
767.47	1640.42
767.65	1607.66
767.84	1669.09
768.02	1845.22
768.20	1744.87
768.39	1763.30
768.57	1642.47
768.75	1734.63
768.94	1761.25
769.12	1662.95
769.30	1650.66
769.49	1695.72
769.67	1759.21
769.85	1785.83
770.04	1658.85
770.22	1634.28
770.40	1660.90
770.59	1679.33
770.77	1755.11
770.95	1714.15
771.14	1708.01
771.32	1626.09
771.50	1644.52
771.69	1615.85
771.87	1621.99
772.05	1667.05
772.24	1621.99
772.42	1744.87
772.60	1695.72
772.78	1748.97
772.97	1595.37
773.15	1744.87
773.33	1695.72
773.52	1683.43
773.70	1650.66
773.88	1658.85
774.07	1685.48
774.25	1687.53
774.43	1722.34
774.61	1679.33
774.80	1619.94
774.98	1675.24
775.16	1708.01
775.34	1738.73
775.53	1683.43
775.71	1714.15
775.89	1720.29
776.08	1640.42
776.26	1685.48
776.44	1763.30
776.62	1662.95
776.81	1683.43
776.99	1755.11
777.17	1722.34
777.35	1734.63
777.54	1703.91
777.72	1775.59
777.90	1681.38
778.08	1613.80
778.27	1687.53
778.45	1581.03
778.63	1665.00
778.81	1722.34
779.00	1626.09
779.18	1699.81
779.36	1720.29
779.54	1626.09
779.73	1691.62
779.91	1673.19
780.09	1626.09
780.27	1628.14
780.46	1699.81
780.64	1621.99
780.82	1603.56
781.00	1691.62
781.19	1597.42
781.37	1728.49
781.55	1783.78
781.73	1699.81
781.91	1658.85
782.10	1728.49
782.28	1697.77
782.46	1748.97
782.64	1738.73
782.82	1720.29
783.01	1705.96
783.19	1771.49
783.37	1665.00
783.55	1591.27
783.74	1671.14
783.92	1621.99
784.10	1703.91
784.28	1679.33
784.46	1595.37
784.64	1615.85
784.83	1761.25
785.01	1787.88
785.19	1791.97
785.37	1648.61
785.55	1710.05
785.74	1636.33
785.92	1773.54
786.10	1669.09
786.28	1769.44
786.46	1765.35
786.64	1665.00
786.83	1619.94
787.01	1732.58
787.19	1785.83
787.37	1759.21
787.55	1646.57
787.74	1656.81
787.92	1751.01
788.10	1699.81
788.28	1699.81
788.46	1703.91
788.64	1755.11
788.82	1720.29
789.01	1722.34
789.19	1740.77
789.37	1701.86
789.55	1710.05
789.73	1601.51
789.91	1679.33
790.09	1722.34
790.28	1607.66
790.46	1634.28
790.64	1673.19
790.82	1617.90
791.00	1638.38
791.18	1685.48
791.36	1716.20
791.55	1669.09
791.73	1632.23
791.91	1660.90
792.09	1636.33
792.27	1630.18
792.45	1718.25
792.63	1732.58
792.81	1642.47
793.00	1687.53
793.18	1689.57
793.36	1755.11
793.54	1710.05
793.72	1689.57
793.90	1724.39
794.08	1658.85
794.26	1691.62
794.44	1581.03
794.62	1634.28
794.81	1581.03
794.99	1716.20
795.17	1785.83
795.35	1681.38
795.53	1640.42
795.71	1767.40
795.89	1611.75
796.07	1693.67
796.25	1613.80
796.43	1714.15
796.61	1759.21
796.80	1691.62
796.98	1691.62
797.16	1695.72
797.34	1605.61
797.52	1626.09
797.70	1724.39
797.88	1677.29
798.06	1646.57
798.24	1814.50
798.42	1609.70
798.60	1839.08
798.78	1710.05
798.96	1708.01
799.14	1607.66
799.32	1746.92
799.51	1578.98
799.69	1787.88
799.87	1710.05
800.05	1658.85
800.23	1648.61
800.41	1708.01
800.59	1679.33
800.77	1638.38
800.95	1570.79
801.13	1806.31
801.31	1652.71
801.49	1832.93
801.67	1621.99
801.85	1630.18
802.03	1693.67
802.21	1679.33
802.39	1662.95
802.57	1603.56
802.75	1740.77
802.93	1726.44
803.11	1609.70
803.29	1740.77
803.47	1710.05
803.65	1617.90
803.83	1658.85
804.01	1744.87
804.19	1632.23
804.37	1662.95
804.55	1687.53
804.73	1746.92
804.91	1611.75
805.09	1708.01
805.27	1726.44
805.45	1634.28
805.63	1568.74
805.81	1771.49
805.99	1763.30
806.17	1673.19
806.35	1675.24
806.53	1675.24
806.71	1769.44
806.89	1677.29
807.07	1722.34
807.25	1742.82
807.43	1660.90
807.61	1705.96
807.79	1732.58
807.97	1693.67
808.15	1630.18
808.33	1744.87
808.51	1738.73
808.69	1665.00
808.87	1660.90
809.05	1675.24
809.23	1681.38
809.41	1628.14
809.59	1646.57
809.77	1753.06
809.95	1732.58
810.13	1759.21
810.31	1720.29
810.49	1708.01
810.67	1650.66
810.84	1648.61
811.02	1708.01
811.20	1671.14
811.38	1701.86
811.56	1542.12
811.74	1679.33
811.92	1673.19
812.10	1638.38
812.28	1822.69
812.46	1714.15
812.64	1734.63
812.82	1654.76
813.00	1646.57
813.18	1626.09
813.36	1648.61
813.53	1685.48
813.71	1781.73
813.89	1687.53
814.07	1642.47
814.25	1699.81
814.43	1591.27
814.61	1574.89
814.79	1630.18
814.97	1736.68
815.15	1716.20
815.33	1597.42
815.50	1617.90
815.68	1587.18
815.86	1697.77
816.04	1705.96
816.22	1667.05
816.40	1642.47
816.58	1712.10
816.76	1605.61
816.94	1703.91
817.11	1617.90
817.29	1671.14
817.47	1681.38
817.65	1603.56
817.83	1708.01
818.01	1687.53
818.19	1675.24
818.37	1699.81
818.54	1714.15
818.72	1675.24
818.90	1660.90
819.08	1693.67
819.26	1667.05
819.44	1744.87
819.62	1722.34
819.80	1611.75
819.97	1781.73
820.15	1687.53
820.33	1662.95
820.51	1624.04
820.69	1675.24
820.87	1683.43
821.05	1689.57
821.22	1603.56
821.40	1619.94
821.58	1755.11
821.76	1636.33
821.94	1607.66
822.12	1710.05
822.29	1730.53
822.47	1583.08
822.65	1697.77
822.83	1630.18
823.01	1673.19
823.19	1654.76
823.36	1665.00
823.54	1626.09
823.72	1724.39
823.90	1677.29
824.08	1642.47
824.25	1621.99
824.43	1705.96
824.61	1669.09
824.79	1609.70
824.97	1632.23
825.15	1681.38
825.32	1665.00
825.50	1718.25
825.68	1605.61
825.86	1689.57
826.04	1677.29
826.21	1732.58
826.39	1593.32
826.57	1679.33
826.75	1789.92
826.93	1691.62
827.10	1753.06
827.28	1601.51
827.46	1716.20
827.64	1662.95
827.81	1669.09
827.99	1652.71
828.17	1718.25
828.35	1652.71
828.53	1673.19
828.70	1632.23
828.88	1650.66
829.06	1621.99
829.24	1716.20
829.41	1677.29
829.59	1710.05
829.77	1654.76
829.95	1632.23
830.12	1611.75
830.30	1595.37
830.48	1726.44
830.66	1714.15
830.84	1644.52
831.01	1777.64
831.19	1564.65
831.37	1710.05
831.55	1660.90
831.72	1710.05
831.90	1662.95
832.08	1640.42
832.25	1669.09
832.43	1703.91
832.61	1685.48
832.79	1574.89
832.96	1699.81
833.14	1773.54
833.32	1728.49
833.50	1656.81
833.67	1732.58
833.85	1585.13
834.03	1624.04
834.20	1650.66
834.38	1720.29
834.56	1761.25
834.74	1640.42
834.91	1660.90
835.09	1746.92
835.27	1591.27
835.44	1703.91
835.62	1615.85
835.80	1646.57
835.98	1650.66
836.15	1738.73
836.33	1640.42
836.51	1609.70
836.68	1626.09
836.86	1574.89
837.04	1689.57
837.21	1753.06
837.39	1740.77
837.57	1783.78
837.75	1638.38
837.92	1662.95
838.10	1656.81
838.28	1685.48
838.45	1710.05
838.63	1550.31
838.81	1738.73
838.98	1716.20
839.16	1617.90
839.34	1593.32
839.51	1621.99
839.69	1611.75
839.87	1581.03
840.04	1726.44
840.22	1937.38
840.40	1632.23
840.57	1585.13
840.75	1650.66
840.93	1648.61
841.10	1662.95
841.28	1687.53
841.46	1667.05
841.63	1677.29
841.81	1583.08
841.98	1578.98
842.16	1765.35
842.34	1630.18
842.51	1570.79
842.69	1726.44
842.87	1689.57
843.04	1703.91
843.22	1634.28
843.40	1613.80
843.57	1617.90
843.75	1613.80
843.92	1708.01
844.10	1675.24
844.28	1695.72
844.45	1581.03
844.63	1691.62
844.81	1712.10
844.98	1755.11
845.16	1734.63
845.33	1669.09
845.51	1660.90
845.69	1646.57
845.86	1767.40
846.04	1624.04
846.21	1626.09
846.39	1615.85
846.57	1589.22
846.74	1585.13
846.92	1681.38
847.09	1667.05
847.27	1619.94
847.45	1720.29
847.62	1673.19
847.80	1566.70
847.97	1761.25
848.15	1662.95
848.32	1591.27
848.50	1708.01
848.68	1605.61
848.85	1677.29
849.03	1562.60
849.20	1603.56
849.38	1652.71
849.56	1628.14
849.73	1607.66
849.91	1603.56
850.08	1714.15
850.26	1550.31
850.43	1638.38
850.61	1746.92
850.78	1611.75
850.96	1681.38
851.14	1535.98
851.31	1767.40
851.49	1667.05
851.66	1726.44
851.84	1581.03
852.01	1691.62
852.19	1689.57
852.36	1640.42
852.54	1699.81
852.71	1611.75
852.89	1716.20
853.07	1667.05
853.24	1646.57
853.42	1638.38
853.59	1630.18
853.77	1679.33
853.94	1695.72
854.12	1765.35
854.29	1572.84
854.47	1636.33
854.64	1728.49
854.82	1671.14
854.99	1710.05
855.17	1673.19
855.34	1597.42
855.52	1650.66
855.69	1746.92
855.87	1601.51
856.04	1716.20
856.22	1751.01
856.39	1656.81
856.57	1640.42
856.74	1634.28
856.92	1808.36
857.09	1660.90
857.27	1667.05
857.44	1732.58
857.62	1724.39
857.79	1632.23
857.97	1640.42
858.14	1677.29
858.32	1628.14
858.49	1626.09
858.67	1755.11
858.84	1615.85
859.02	1732.58
859.19	1679.33
859.37	1681.38
859.54	1640.42
859.72	1640.42
859.89	1591.27
860.06	1609.70
860.24	1578.98
860.41	1791.97
860.59	1652.71
860.76	1656.81
860.94	1560.55
861.11	1675.24
861.29	1654.76
861.46	1642.47
861.64	1667.05
861.81	1691.62
861.98	1615.85
862.16	1642.47
862.33	1546.22
862.51	1673.19
862.68	1656.81
862.86	1548.26
863.03	1574.89
863.21	1648.61
863.38	1693.67
863.55	1628.14
863.73	1695.72
863.90	1730.53
864.08	1605.61
864.25	1701.86
864.43	1617.90
864.60	1615.85
864.77	1611.75
864.95	1650.66
865.12	1535.98
865.30	1675.24
865.47	1710.05
865.64	1738.73
865.82	1681.38
865.99	1687.53
866.17	1691.62
866.34	1658.85
866.51	1525.74
866.69	1669.09
866.86	1708.01
867.04	1699.81
867.21	1636.33
867.38	1591.27
867.56	1656.81
867.73	1673.19
867.91	1654.76
868.08	1628.14
868.25	1611.75
868.43	1744.87
868.60	1683.43
868.78	1515.50
868.95	1650.66
869.12	1644.52
869.30	1679.33
869.47	1726.44
869.64	1671.14
869.82	1658.85
869.99	1771.49
870.16	1732.58
870.34	1583.08
870.51	1716.20
870.69	1542.12
870.86	1665.00
871.03	1624.04
871.21	1558.50
871.38	1728.49
871.55	1656.81
871.73	1613.80
871.90	1605.61
872.07	1619.94
872.25	1548.26
872.42	1583.08
872.59	1497.07
872.77	1660.90
872.94	1624.04
873.11	1609.70
873.29	1769.44
873.46	1609.70
873.63	1691.62
873.81	1638.38
873.98	1769.44
874.15	1621.99
874.33	1650.66
874.50	1712.10
874.67	1708.01
874.85	1587.18
875.02	1617.90
875.19	1564.65
875.37	1689.57
875.54	1568.74
875.71	1708.01
875.88	1681.38
876.06	1681.38
876.23	1626.09
876.40	1716.20
876.58	1630.18
876.75	1726.44
876.92	1615.85
877.10	1638.38
877.27	1636.33
877.44	1677.29
877.61	1621.99
877.79	1685.48
877.96	1679.33
878.13	1644.52
878.31	1572.84
878.48	1644.52
878.65	1718.25
878.82	1562.60
879.00	1650.66
879.17	1693.67
879.34	1597.42
879.51	1550.31
879.69	1644.52
879.86	1495.02
880.03	1695.72
880.21	1619.94
880.38	1601.51
880.55	1695.72
880.72	1671.14
880.90	1683.43
881.07	1632.23
881.24	1644.52
881.41	1611.75
881.59	1650.66
881.76	1619.94
881.93	1748.97
882.10	1730.53
882.28	1607.66
882.45	1708.01
882.62	1646.57
882.79	1630.18
882.96	1538.02
883.14	1710.05
883.31	1669.09
883.48	1568.74
883.65	1658.85
883.83	1638.38
884.00	1644.52
884.17	1640.42
884.34	1734.63
884.51	1693.67
884.69	1685.48
884.86	1671.14
885.03	1724.39
885.20	1535.98
885.38	1712.10
885.55	1603.56
885.72	1658.85
885.89	1615.85
886.06	1761.25
886.24	1548.26
886.41	1656.81
886.58	1738.73
886.75	1699.81
886.92	1673.19
887.10	1556.46
887.27	1652.71
887.44	1699.81
887.61	1720.29
887.78	1691.62
887.95	1679.33
888.13	1636.33
888.30	1656.81
888.47	1687.53
888.64	1677.29
888.81	1708.01
888.99	1630.18
889.16	1683.43
889.33	1624.04
889.50	1632.23
889.67	1636.33
889.84	1679.33
890.01	1740.77
890.19	1681.38
890.36	1644.52
890.53	1646.57
890.70	1642.47
890.87	1685.48
891.04	1662.95
891.22	1576.94
891.39	1566.70
891.56	1626.09
891.73	1683.43
891.90	1619.94
892.07	1585.13
892.24	1732.58
892.42	1673.19
892.59	1626.09
892.76	1712.10
892.93	1617.90
893.10	1607.66
893.27	1701.86
893.44	1589.22
893.61	1638.38
893.79	1671.14
893.96	1568.74
894.13	1640.42
894.30	1654.76
894.47	1724.39
894.64	1732.58
894.81	1626.09
894.98	1605.61
895.15	1675.24
895.33	1765.35
895.50	1597.42
895.67	1603.56
895.84	1724.39
896.01	1640.42
896.18	1595.37
896.35	1769.44
896.52	1581.03
896.69	1679.33
896.86	1646.57
897.04	1720.29
897.21	1671.14
897.38	1646.57
897.55	1621.99
897.72	1705.96
897.89	1607.66
898.06	1730.53
898.23	1591.27
898.40	1644.52
898.57	1667.05
898.74	1667.05
898.91	1607.66
899.08	1574.89
899.26	1708.01
899.43	1699.81
899.60	1658.85
899.77	1671.14
899.94	1587.18
900.11	1628.14
900.28	1593.32
900.45	1667.05
900.62	1638.38
900.79	1673.19
900.96	1646.57
901.13	1671.14
901.30	1640.42
901.47	1585.13
901.64	1605.61
901.81	1683.43
901.98	1654.76
902.15	1667.05
902.32	1591.27
902.49	1648.61
902.66	1671.14
902.83	1595.37
903.01	1589.22
903.18	1658.85
903.35	1589.22
903.52	1609.70
903.69	1636.33
903.86	1662.95
904.03	1591.27
904.20	1744.87
904.37	1660.90
904.54	1591.27
904.71	1615.85
904.88	1642.47
905.05	1574.89
905.22	1675.24
905.39	1609.70
905.56	1548.26
905.73	1597.42
905.90	1675.24
906.07	1660.90
906.24	1730.53
906.41	1681.38
906.58	1699.81
906.75	1572.84
906.92	1619.94
907.09	1638.38
907.26	1656.81
907.43	1626.09
907.60	1648.61
907.77	1658.85
907.93	1634.28
908.10	1595.37
908.27	1699.81
908.44	1601.51
908.61	1511.40
908.78	1658.85
908.95	1791.97
909.12	1654.76
909.29	1675.24
909.46	1644.52
909.63	1738.73
909.80	1671.14
909.97	1736.68
910.14	1621.99
910.31	1652.71
910.48	1578.98
910.65	1712.10
910.82	1605.61
910.99	1656.81
911.16	1714.15
911.33	1634.28
911.50	1589.22
911.66	1630.18
911.83	1603.56
912.00	1679.33
912.17	1552.36
912.34	1638.38
912.51	1685.48
912.68	1636.33
912.85	1779.68
913.02	1757.16
913.19	1681.38
913.36	1691.62
913.53	1730.53
913.70	1669.09
913.86	1732.58
914.03	1662.95
914.20	1597.42
914.37	1603.56
914.54	1535.98
914.71	1742.82
914.88	1679.33
915.05	1595.37
915.22	1669.09
915.39	1679.33
915.55	1583.08
915.72	1609.70
915.89	1578.98
916.06	1673.19
916.23	1617.90
916.40	1630.18
916.57	1597.42
916.74	1728.49
916.91	1667.05
917.07	1558.50
917.24	1540.07
917.41	1683.43
917.58	1632.23
917.75	1599.46
917.92	1515.50
918.09	1609.70
918.26	1603.56
918.42	1662.95
918.59	1650.66
918.76	1658.85
918.93	1576.94
919.10	1640.42
919.27	1609.70
919.44	1734.63
919.60	1662.95
919.77	1601.51
919.94	1675.24
920.11	1605.61
920.28	1744.87
920.45	1658.85
920.61	1572.84
920.78	1650.66
920.95	1736.68
921.12	1642.47
921.29	1630.18
921.46	1589.22
921.62	1591.27
921.79	1642.47
921.96	1648.61
922.13	1658.85
922.30	1685.48
922.47	1574.89
922.63	1628.14
922.80	1624.04
922.97	1607.66
923.14	1490.92
923.31	1568.74
923.47	1626.09
923.64	1714.15
923.81	1597.42
923.98	1740.77
924.15	1605.61
924.32	1748.97
924.48	1701.86
924.65	1785.83
924.82	1566.70
924.99	1617.90
925.15	1566.70
925.32	1800.16
925.49	1654.76
925.66	1634.28
925.83	1611.75
925.99	1603.56
926.16	1744.87
926.33	1640.42
926.50	1538.02
926.67	1681.38
926.83	1650.66
927.00	1710.05
927.17	1718.25
927.34	1562.60
927.50	1675.24
927.67	1802.21
927.84	1720.29
928.01	1669.09
928.17	1722.34
928.34	1646.57
928.51	1681.38
928.68	1675.24
928.84	1662.95
929.01	1535.98
929.18	1585.13
929.35	1660.90
929.51	1611.75
929.68	1593.32
929.85	1603.56
930.02	1634.28
930.18	1585.13
930.35	1621.99
930.52	1581.03
930.69	1708.01
930.85	1804.26
931.02	1585.13
931.19	1654.76
931.36	1646.57
931.52	1650.66
931.69	1636.33
931.86	1630.18
932.02	1644.52
932.19	1578.98
932.36	1644.52
932.53	1656.81
932.69	1587.18
932.86	1783.78
933.03	1607.66
933.19	1626.09
933.36	1581.03
933.53	1705.96
933.70	1695.72
933.86	1726.44
934.03	1679.33
934.20	1636.33
934.36	1716.20
934.53	1593.32
934.70	1531.88
934.86	1646.57
935.03	1638.38
935.20	1658.85
935.36	1669.09
935.53	1595.37
935.70	1630.18
935.86	1640.42
936.03	1525.74
936.20	1531.88
936.36	1640.42
936.53	1662.95
936.70	1593.32
936.86	1830.88
937.03	1677.29
937.20	1671.14
937.36	1724.39
937.53	1497.07
937.70	1636.33
937.86	1617.90
938.03	1654.76
938.20	1798.12
938.36	1691.62
938.53	1701.86
938.70	1558.50
938.86	1617.90
939.03	1578.98
939.20	1660.90
939.36	1624.04
939.53	1587.18
939.70	1855.46
939.86	1683.43
940.03	1660.90
940.19	1546.22
940.36	1648.61
940.53	1581.03
940.69	1619.94
940.86	1714.15
941.03	1640.42
941.19	1605.61
941.36	1716.20
941.52	1705.96
941.69	1587.18
941.86	1621.99
942.02	1617.90
942.19	1658.85
942.35	1683.43
942.52	1640.42
942.69	1599.46
942.85	1615.85
943.02	1523.69
943.18	1628.14
943.35	1624.04
943.52	1689.57
943.68	1572.84
943.85	1667.05
944.01	1650.66
944.18	1665.00
944.35	1705.96
944.51	1730.53
944.68	1558.50
944.84	1587.18
945.01	1540.07
945.17	1738.73
945.34	1671.14
945.51	1734.63
945.67	1646.57
945.84	1617.90
946.00	1544.17
946.17	1681.38
946.33	1603.56
946.50	1761.25
946.67	1638.38
946.83	1542.12
947.00	1703.91
947.16	1607.66
947.33	1617.90
947.49	1617.90
947.66	1544.17
947.82	1679.33
947.99	1597.42
948.16	1724.39
948.32	1642.47
948.49	1691.62
948.65	1710.05
948.82	1679.33
948.98	1619.94
949.15	1603.56
949.31	1640.42
949.48	1603.56
949.64	1589.22
949.81	1564.65
949.97	1566.70
950.14	1673.19
950.30	1576.94
950.47	1628.14
950.63	1644.52
950.80	1619.94
950.96	1646.57
951.13	1689.57
951.30	1665.00
951.46	1595.37
951.63	1708.01
951.79	1665.00
951.96	1773.54
952.12	1646.57
952.29	1603.56
952.45	1556.46
952.62	1617.90
952.78	1636.33
952.94	1636.33
953.11	1634.28
953.27	1495.02
953.44	1738.73
953.60	1630.18
953.77	1714.15
953.93	1556.46
954.10	1621.99
954.26	1654.76
954.43	1576.94
954.59	1732.58
954.76	1742.82
954.92	1630.18
955.09	1605.61
955.25	1542.12
955.42	1611.75
955.58	1619.94
955.75	1609.70
955.91	1576.94
956.07	1638.38
956.24	1621.99
956.40	1691.62
956.57	1697.77
956.73	1581.03
956.90	1650.66
957.06	1572.84
957.23	1564.65
957.39	1562.60
957.56	1597.42
957.72	1499.11
957.88	1517.54
958.05	1634.28
958.21	1570.79
958.38	1601.51
958.54	1624.04
958.71	1658.85
958.87	1544.17
959.03	1542.12
959.20	1755.11
959.36	1535.98
959.53	1595.37
959.69	1531.88
959.85	1691.62
960.02	1570.79
960.18	1552.36
960.35	1619.94
960.51	1693.67
960.68	1597.42
960.84	1656.81
961.00	1523.69
961.17	1560.55
961.33	1540.07
961.50	1589.22
961.66	1634.28
961.82	1624.04
961.99	1669.09
962.15	1632.23
962.31	1585.13
962.48	1613.80
962.64	1703.91
962.81	1644.52
962.97	1619.94
963.13	1662.95
963.30	1636.33
963.46	1609.70
963.62	1576.94
963.79	1650.66
963.95	1591.27
964.12	1701.86
964.28	1662.95
964.44	1587.18
964.61	1677.29
964.77	1648.61
964.93	1761.25
965.10	1546.22
965.26	1597.42
965.42	1589.22
965.59	1548.26
965.75	1671.14
965.92	1677.29
966.08	1662.95
966.24	1624.04
966.41	1591.27
966.57	1703.91
966.73	1609.70
966.90	1679.33
967.06	1556.46
967.22	1615.85
967.39	1652.71
967.55	1609.70
967.71	1619.94
967.88	1667.05
968.04	1615.85
968.20	1568.74
968.37	1585.13
968.53	1564.65
968.69	1656.81
968.85	1665.00
969.02	1638.38
969.18	1738.73
969.34	1654.76
969.51	1679.33
969.67	1665.00
969.83	1626.09
970.00	1720.29
970.16	1630.18
970.32	1701.86
970.48	1777.64
970.65	1593.32
970.81	1591.27
970.97	1599.46
971.14	1413.10
971.30	1703.91
971.46	1519.59
971.63	1679.33
971.79	1638.38
971.95	1611.75
972.11	1529.83
972.28	1634.28
972.44	1640.42
972.60	1589.22
972.76	1677.29
972.93	1611.75
973.09	1699.81
973.25	1683.43
973.42	1605.61
973.58	1662.95
973.74	1638.38
973.90	1689.57
974.07	1642.47
974.23	1601.51
974.39	1734.63
974.55	1634.28
974.72	1654.76
974.88	1552.36
975.04	1695.72
975.20	1650.66
975.37	1677.29
975.53	1609.70
975.69	1675.24
975.85	1525.74
976.01	1587.18
976.18	1646.57
976.34	1617.90
976.50	1720.29
976.66	1673.19
976.83	1617.90
976.99	1599.46
977.15	1636.33
977.31	1548.26
977.47	1662.95
977.64	1687.53
977.80	1591.27
977.96	1646.57
978.12	1583.08
978.29	1638.38
978.45	1499.11
978.61	1642.47
978.77	1732.58
978.93	1640.42
979.10	1626.09
979.26	1640.42
979.42	1552.36
979.58	1585.13
979.74	1597.42
979.91	1648.61
980.07	1615.85
980.23	1585.13
980.39	1634.28
980.55	1648.61
980.71	1552.36
980.88	1613.80
981.04	1667.05
981.20	1595.37
981.36	1708.01
981.52	1632.23
981.68	1615.85
981.85	1638.38
982.01	1607.66
982.17	1597.42
982.33	1615.85
982.49	1673.19
982.65	1552.36
982.82	1658.85
982.98	1621.99
983.14	1525.74
983.30	1642.47
983.46	1687.53
983.62	1654.76
983.79	1601.51
983.95	1589.22
984.11	1470.44
984.27	1597.42
984.43	1660.90
984.59	1560.55
984.75	1658.85
984.91	1613.80
985.08	1691.62
985.24	1578.98
985.40	1632.23
985.56	1656.81
985.72	1730.53
985.88	1681.38
986.04	1554.41
986.20	1576.94
986.37	1607.66
986.53	1556.46
986.69	1613.80
986.85	1601.51
987.01	1558.50
987.17	1662.95
987.33	1617.90
987.49	1552.36
987.65	1646.57
987.82	1632.23
987.98	1632.23
988.14	1581.03
988.30	1628.14
988.46	1628.14
988.62	1613.80
988.78	1544.17
988.94	1650.66
989.10	1662.95
989.26	1558.50
989.42	1585.13
989.59	1609.70
989.75	1617.90
989.91	1724.39
990.07	1599.46
990.23	1626.09
990.39	1611.75
990.55	1619.94
990.71	1601.51
990.87	1656.81
991.03	1632.23
991.19	1634.28
991.35	1593.32
991.51	1583.08
991.67	1681.38
991.83	1593.32
992.00	1576.94
992.16	1699.81
992.32	1677.29
992.48	1642.47
992.64	1615.85
992.80	1634.28
992.96	1609.70
993.12	1634.28
993.28	1599.46
993.44	1601.51
993.60	1601.51
993.76	1654.76
993.92	1691.62
994.08	1638.38
994.24	1646.57
994.40	1621.99
994.56	1615.85
994.72	1613.80
994.88	1601.51
995.04	1585.13
995.20	1636.33
995.36	1593.32
995.52	1679.33
995.68	1624.04
995.84	1609.70
996.00	1798.12
996.16	1665.00
996.32	1636.33
996.48	1624.04
996.64	1662.95
996.80	1589.22
996.96	1626.09
997.12	1619.94
997.28	1544.17
997.44	1556.46
997.60	1583.08
997.76	1566.70
997.92	1597.42
998.08	1640.42
998.24	1519.59
998.40	1665.00
998.56	1710.05
998.72	1519.59
998.88	1550.31
999.04	1601.51
999.20	1679.33
999.36	1638.38
999.52	1689.57
999.68	1578.98
999.84	1679.33
1000.00	1699.81
1000.16	1626.09
1000.32	1554.41
1000.48	1744.87
1000.64	1628.14
1000.80	1576.94
1000.95	1490.92
1001.11	1593.32
1001.27	1560.55
1001.43	1632.23
1001.59	1587.18
1001.75	1552.36
1001.91	1593.32
1002.07	1533.93
1002.23	1560.55
1002.39	1601.51
1002.55	1662.95
1002.71	1572.84
1002.87	1638.38
1003.03	1566.70
1003.19	1488.87
1003.34	1671.14
1003.50	1544.17
1003.66	1673.19
1003.82	1691.62
1003.98	1587.18
1004.14	1578.98
1004.30	1593.32
1004.46	1540.07
1004.62	1591.27
1004.78	1669.09
1004.94	1667.05
1005.09	1662.95
1005.25	1621.99
1005.41	1671.14
1005.57	1593.32
1005.73	1535.98
1005.89	1544.17
1006.05	1609.70
1006.21	1667.05
1006.37	1613.80
1006.52	1558.50
1006.68	1669.09
1006.84	1701.86
1007.00	1521.64
1007.16	1599.46
1007.32	1572.84
1007.48	1632.23
1007.64	1683.43
1007.79	1615.85
1007.95	1568.74
1008.11	1720.29
1008.27	1558.50
1008.43	1658.85
1008.59	1566.70
1008.75	1705.96
1008.91	1546.22
1009.06	1621.99
1009.22	1667.05
1009.38	1640.42
1009.54	1685.48
1009.70	1566.70
1009.86	1615.85
1010.01	1691.62
1010.17	1650.66
1010.33	1613.80
1010.49	1574.89
1010.65	1712.10
1010.81	1581.03
1010.96	1599.46
1011.12	1542.12
1011.28	1656.81
1011.44	1613.80
1011.60	1613.80
1011.76	1667.05
1011.91	1628.14
1012.07	1560.55
1012.23	1591.27
1012.39	1589.22
1012.55	1548.26
1012.71	1513.45
1012.86	1595.37
1013.02	1609.70
1013.18	1603.56
1013.34	1609.70
1013.50	1665.00
1013.65	1640.42
1013.81	1492.97
1013.97	1562.60
1014.13	1597.42
1014.29	1626.09
1014.44	1738.73
1014.60	1601.51
1014.76	1595.37
1014.92	1585.13
1015.07	1603.56
1015.23	1601.51
1015.39	1605.61
1015.55	1599.46
1015.71	1574.89
1015.86	1609.70
1016.02	1535.98
1016.18	1535.98
1016.34	1558.50
1016.49	1638.38
1016.65	1677.29
1016.81	1585.13
1016.97	1587.18
1017.12	1638.38
1017.28	1521.64
1017.44	1527.78
1017.60	1621.99
1017.75	1628.14
1017.91	1632.23
1018.07	1533.93
1018.23	1662.95
1018.38	1583.08
1018.54	1585.13
1018.70	1570.79
1018.86	1617.90
1019.01	1550.31
1019.17	1550.31
1019.33	1685.48
1019.49	1650.66
1019.64	1605.61
1019.80	1619.94
1019.96	1624.04
1020.12	1585.13
1020.27	1581.03
1020.43	1607.66
1020.59	1640.42
1020.74	1681.38
1020.90	1646.57
1021.06	1626.09
1021.22	1613.80
1021.37	1630.18
1021.53	1529.83
1021.69	1630.18
1021.84	1560.55
1022.00	1640.42
1022.16	1621.99
1022.31	1621.99
1022.47	1687.53
1022.63	1656.81
1022.79	1538.02
1022.94	1585.13
1023.10	1650.66
1023.26	1626.09
1023.41	1564.65
1023.57	1542.12
1023.73	1656.81
1023.88	1695.72
1024.04	1542.12
1024.20	1595.37
1024.35	1697.77
1024.51	1613.80
1024.67	1601.51
1024.82	1701.86
1024.98	1589.22
1025.14	1624.04
1025.29	1619.94
1025.45	1722.34
1025.61	1568.74
1025.76	1626.09
1025.92	1599.46
1026.08	1617.90
1026.23	1642.47
1026.39	1722.34
1026.55	1640.42
1026.70	1583.08
1026.86	1566.70
1027.02	1632.23
1027.17	1636.33
1027.33	1673.19
1027.48	1595.37
1027.64	1556.46
1027.80	1648.61
1027.95	1648.61
1028.11	1576.94
1028.27	1630.18
1028.42	1636.33
1028.58	1638.38
1028.73	1513.45
1028.89	1607.66
1029.05	1667.05
1029.20	1693.67
>>>>>End Processed Spectral Data<<<<<
