SpectraSuite Data File
++++++++++++++++++++++++++++++++++++
Date: Fri Jun 02 14:57:16 CEST 2017
User: INFO_000
Dark Spectrum Present: No
Reference Spectrum Present: No
Number of Sampled Component Spectra: 1
Spectrometers: USB4H00879
Integration Time (usec): 80000 (USB4H00879)
Spectra Averaged: 1 (USB4H00879)
Boxcar Smoothing: 0 (USB4H00879)
Correct for Electrical Dark: No (USB4H00879)
Strobe/Lamp Enabled: No (USB4H00879)
Correct for Detector Non-linearity: No (USB4H00879)
Correct for Stray Light: No (USB4H00879)
Number of Pixels in Processed Spectrum: 3648
>>>>>Begin Processed Spectral Data<<<<<
345.13	1269.74
345.34	1269.74
345.56	1269.74
345.78	1257.45
345.99	1312.75
346.21	1751.01
346.42	1761.25
346.64	1607.66
346.86	1816.55
347.07	1654.76
347.29	1769.44
347.50	1574.89
347.72	1693.67
347.94	1755.11
348.15	1552.36
348.37	1636.33
348.59	1699.81
348.80	1617.90
349.02	1691.62
349.23	1724.39
349.45	1716.20
349.67	1761.25
349.88	1671.14
350.10	1859.56
350.31	1767.40
350.53	1667.05
350.75	1882.08
350.96	1669.09
351.18	1728.49
351.39	1796.07
351.61	1652.71
351.82	1705.96
352.04	1791.97
352.26	1701.86
352.47	1761.25
352.69	1783.78
352.90	1621.99
353.12	1748.97
353.34	1736.68
353.55	1812.45
353.77	1673.19
353.98	1726.44
354.20	1681.38
354.41	1794.02
354.63	1722.34
354.85	1873.89
355.06	1728.49
355.28	1568.74
355.49	1708.01
355.71	1708.01
355.92	1677.29
356.14	1802.21
356.35	1644.52
356.57	1691.62
356.79	1732.58
357.00	1748.97
357.22	1800.16
357.43	1703.91
357.65	1712.10
357.86	1665.00
358.08	1624.04
358.29	1810.40
358.51	1802.21
358.72	1755.11
358.94	1763.30
359.16	1755.11
359.37	1775.59
359.59	1695.72
359.80	1718.25
360.02	1722.34
360.23	1740.77
360.45	1781.73
360.66	1730.53
360.88	1683.43
361.09	1671.14
361.31	1769.44
361.52	1781.73
361.74	1804.26
361.95	1804.26
362.17	1755.11
362.38	1763.30
362.60	1710.05
362.81	1765.35
363.03	1718.25
363.24	1710.05
363.46	1726.44
363.67	1716.20
363.89	1724.39
364.10	1744.87
364.32	1695.72
364.53	1802.21
364.75	1613.80
364.96	1712.10
365.18	1658.85
365.39	1691.62
365.61	1681.38
365.82	1787.88
366.04	1679.33
366.25	1673.19
366.47	1773.54
366.68	1685.48
366.90	1673.19
367.11	1777.64
367.33	1736.68
367.54	1785.83
367.76	1624.04
367.97	1802.21
368.19	1667.05
368.40	1732.58
368.62	1660.90
368.83	1621.99
369.05	1683.43
369.26	1705.96
369.48	1705.96
369.69	1687.53
369.91	1742.82
370.12	1683.43
370.33	1783.78
370.55	1667.05
370.76	1640.42
370.98	1806.31
371.19	1722.34
371.41	1701.86
371.62	1722.34
371.84	1681.38
372.05	1787.88
372.27	1753.06
372.48	1710.05
372.69	1667.05
372.91	1763.30
373.12	1720.29
373.34	1730.53
373.55	1695.72
373.77	1740.77
373.98	1695.72
374.20	1777.64
374.41	1826.79
374.62	1621.99
374.84	1712.10
375.05	1796.07
375.27	1720.29
375.48	1753.06
375.70	1716.20
375.91	1783.78
376.12	1779.68
376.34	1751.01
376.55	1716.20
376.77	1771.49
376.98	1662.95
377.19	1667.05
377.41	1726.44
377.62	1638.38
377.84	1734.63
378.05	1837.03
378.27	1687.53
378.48	1830.88
378.69	1837.03
378.91	1798.12
379.12	1773.54
379.34	1748.97
379.55	1740.77
379.76	1757.16
379.98	1689.57
380.19	1658.85
380.41	1693.67
380.62	1779.68
380.83	1728.49
381.05	1720.29
381.26	1875.94
381.47	1656.81
381.69	1746.92
381.90	1871.84
382.12	1687.53
382.33	1685.48
382.54	1683.43
382.76	1675.24
382.97	1732.58
383.19	1671.14
383.40	1720.29
383.61	1662.95
383.83	1619.94
384.04	1636.33
384.25	1789.92
384.47	1746.92
384.68	1718.25
384.89	1583.08
385.11	1671.14
385.32	1689.57
385.54	1607.66
385.75	1617.90
385.96	1701.86
386.18	1753.06
386.39	1689.57
386.60	1591.27
386.82	1734.63
387.03	1626.09
387.24	1710.05
387.46	1697.77
387.67	1662.95
387.88	1730.53
388.10	1761.25
388.31	1693.67
388.52	1740.77
388.74	1691.62
388.95	1613.80
389.16	1751.01
389.38	1640.42
389.59	1771.49
389.80	1718.25
390.02	1740.77
390.23	1740.77
390.44	1662.95
390.66	1578.98
390.87	1662.95
391.08	1683.43
391.30	1765.35
391.51	1777.64
391.72	1849.32
391.94	1714.15
392.15	1681.38
392.36	1675.24
392.58	1699.81
392.79	1665.00
393.00	1615.85
393.22	1791.97
393.43	1708.01
393.64	1744.87
393.85	1759.21
394.07	1708.01
394.28	1683.43
394.49	1775.59
394.71	1716.20
394.92	1791.97
395.13	1642.47
395.35	1669.09
395.56	1638.38
395.77	1726.44
395.98	1726.44
396.20	1812.45
396.41	1654.76
396.62	1796.07
396.84	1667.05
397.05	1728.49
397.26	1712.10
397.47	1781.73
397.69	1685.48
397.90	1865.70
398.11	1734.63
398.32	1679.33
398.54	1644.52
398.75	1658.85
398.96	1677.29
399.18	1753.06
399.39	1736.68
399.60	1654.76
399.81	1712.10
400.03	1640.42
400.24	1970.15
400.45	1757.16
400.66	1714.15
400.88	1603.56
401.09	1798.12
401.30	1662.95
401.51	1748.97
401.73	1775.59
401.94	1695.72
402.15	1730.53
402.36	1730.53
402.58	1787.88
402.79	1757.16
403.00	1681.38
403.21	1730.53
403.43	1732.58
403.64	1742.82
403.85	1718.25
404.06	1773.54
404.27	1646.57
404.49	1705.96
404.70	1693.67
404.91	1785.83
405.12	1736.68
405.34	1757.16
405.55	1767.40
405.76	1611.75
405.97	1665.00
406.19	1773.54
406.40	1599.46
406.61	1736.68
406.82	1615.85
407.03	1675.24
407.25	1646.57
407.46	1757.16
407.67	1777.64
407.88	1767.40
408.09	1740.77
408.31	1716.20
408.52	1734.63
408.73	1624.04
408.94	1617.90
409.15	1746.92
409.37	1783.78
409.58	1765.35
409.79	1722.34
410.00	1744.87
410.21	1761.25
410.43	1726.44
410.64	1718.25
410.85	1736.68
411.06	1724.39
411.27	1798.12
411.48	1773.54
411.70	1689.57
411.91	1712.10
412.12	1837.03
412.33	1763.30
412.54	1632.23
412.76	1734.63
412.97	1857.51
413.18	1642.47
413.39	1755.11
413.60	1728.49
413.81	1730.53
414.03	1712.10
414.24	1581.03
414.45	1853.41
414.66	1665.00
414.87	1673.19
415.08	1720.29
415.30	1689.57
415.51	1703.91
415.72	1712.10
415.93	1654.76
416.14	1755.11
416.35	1722.34
416.56	1656.81
416.78	1744.87
416.99	1716.20
417.20	1744.87
417.41	1779.68
417.62	1742.82
417.83	1714.15
418.04	1771.49
418.26	1751.01
418.47	1726.44
418.68	1746.92
418.89	1736.68
419.10	1839.08
419.31	1708.01
419.52	1716.20
419.73	1640.42
419.95	1720.29
420.16	1675.24
420.37	1650.66
420.58	1691.62
420.79	1576.94
421.00	1644.52
421.21	1615.85
421.42	1669.09
421.63	1720.29
421.85	1679.33
422.06	1718.25
422.27	1630.18
422.48	1736.68
422.69	1683.43
422.90	1705.96
423.11	1621.99
423.32	1759.21
423.53	1771.49
423.75	1718.25
423.96	1738.73
424.17	1787.88
424.38	1822.69
424.59	1705.96
424.80	1714.15
425.01	1732.58
425.22	1581.03
425.43	1726.44
425.64	1746.92
425.85	1728.49
426.06	1677.29
426.28	1710.05
426.49	1632.23
426.70	1640.42
426.91	1667.05
427.12	1824.74
427.33	1685.48
427.54	1652.71
427.75	1693.67
427.96	1828.84
428.17	1822.69
428.38	1679.33
428.59	1703.91
428.80	1642.47
429.01	1718.25
429.23	1654.76
429.44	1718.25
429.65	1812.45
429.86	1703.91
430.07	1720.29
430.28	1605.61
430.49	1753.06
430.70	1742.82
430.91	1800.16
431.12	1667.05
431.33	1675.24
431.54	1755.11
431.75	1691.62
431.96	1683.43
432.17	1708.01
432.38	1695.72
432.59	1787.88
432.80	1820.64
433.01	1638.38
433.22	1669.09
433.43	1660.90
433.64	1699.81
433.85	1746.92
434.06	1679.33
434.27	1660.90
434.49	1726.44
434.70	1789.92
434.91	1775.59
435.12	1667.05
435.33	1693.67
435.54	1753.06
435.75	1626.09
435.96	1677.29
436.17	1673.19
436.38	1761.25
436.59	1650.66
436.80	1634.28
437.01	1771.49
437.22	1705.96
437.43	1751.01
437.64	1607.66
437.85	1679.33
438.06	1732.58
438.27	1673.19
438.48	1669.09
438.69	1845.22
438.90	1685.48
439.11	1681.38
439.32	1843.17
439.53	1546.22
439.74	1675.24
439.95	1646.57
440.16	1646.57
440.37	1742.82
440.57	1673.19
440.78	1767.40
440.99	1687.53
441.20	1753.06
441.41	1658.85
441.62	1589.22
441.83	1648.61
442.04	1597.42
442.25	1689.57
442.46	1601.51
442.67	1703.91
442.88	1714.15
443.09	1654.76
443.30	1646.57
443.51	1691.62
443.72	1665.00
443.93	1658.85
444.14	1769.44
444.35	1693.67
444.56	1677.29
444.77	1624.04
444.98	1732.58
445.19	1677.29
445.40	1691.62
445.61	1597.42
445.81	1615.85
446.02	1753.06
446.23	1771.49
446.44	1638.38
446.65	1681.38
446.86	1761.25
447.07	1830.88
447.28	1656.81
447.49	1671.14
447.70	1646.57
447.91	1736.68
448.12	1652.71
448.33	1796.07
448.54	1677.29
448.74	1687.53
448.95	1722.34
449.16	1714.15
449.37	1705.96
449.58	1761.25
449.79	1718.25
450.00	1728.49
450.21	1708.01
450.42	1669.09
450.63	1785.83
450.84	1769.44
451.05	1705.96
451.25	1662.95
451.46	1691.62
451.67	1785.83
451.88	1724.39
452.09	1568.74
452.30	1732.58
452.51	1712.10
452.72	1794.02
452.93	1839.08
453.13	1673.19
453.34	1603.56
453.55	1699.81
453.76	1675.24
453.97	1669.09
454.18	1581.03
454.39	1753.06
454.60	1597.42
454.81	1773.54
455.01	1683.43
455.22	1595.37
455.43	1669.09
455.64	1654.76
455.85	1667.05
456.06	1705.96
456.27	1810.40
456.48	1675.24
456.68	1728.49
456.89	1834.98
457.10	1720.29
457.31	1712.10
457.52	1734.63
457.73	1722.34
457.94	1708.01
458.14	1509.35
458.35	1726.44
458.56	1683.43
458.77	1724.39
458.98	1708.01
459.19	1638.38
459.39	1732.58
459.60	1710.05
459.81	1597.42
460.02	1675.24
460.23	1699.81
460.44	1687.53
460.65	1757.16
460.85	1744.87
461.06	1703.91
461.27	1724.39
461.48	1703.91
461.69	1621.99
461.89	1560.55
462.10	1628.14
462.31	1585.13
462.52	1558.50
462.73	1640.42
462.94	1753.06
463.14	1691.62
463.35	1753.06
463.56	1830.88
463.77	1798.12
463.98	1619.94
464.18	1712.10
464.39	1761.25
464.60	1703.91
464.81	1583.08
465.02	1699.81
465.23	1724.39
465.43	1785.83
465.64	1640.42
465.85	1593.32
466.06	1759.21
466.27	1679.33
466.47	1699.81
466.68	1798.12
466.89	1593.32
467.10	1550.31
467.30	1644.52
467.51	1800.16
467.72	1751.01
467.93	1554.41
468.14	1677.29
468.34	1806.31
468.55	1679.33
468.76	1701.86
468.97	1744.87
469.17	1716.20
469.38	1828.84
469.59	1681.38
469.80	1656.81
470.01	1683.43
470.21	1669.09
470.42	1687.53
470.63	1660.90
470.84	1830.88
471.04	1705.96
471.25	1898.47
471.46	1660.90
471.67	1751.01
471.87	1669.09
472.08	1679.33
472.29	1689.57
472.50	1777.64
472.70	1697.77
472.91	1656.81
473.12	1693.67
473.33	1693.67
473.53	1716.20
473.74	1654.76
473.95	1720.29
474.16	1634.28
474.36	1660.90
474.57	1669.09
474.78	1683.43
474.99	1753.06
475.19	1679.33
475.40	1607.66
475.61	1689.57
475.81	1722.34
476.02	1671.14
476.23	1738.73
476.44	1712.10
476.64	1722.34
476.85	1671.14
477.06	1677.29
477.27	1632.23
477.47	1720.29
477.68	1726.44
477.89	1693.67
478.09	1703.91
478.30	1705.96
478.51	1697.77
478.71	1638.38
478.92	1701.86
479.13	1736.68
479.34	1617.90
479.54	1697.77
479.75	1699.81
479.96	1697.77
480.16	1609.70
480.37	1662.95
480.58	1691.62
480.78	1759.21
480.99	1626.09
481.20	1718.25
481.41	1720.29
481.61	1734.63
481.82	1767.40
482.03	1570.79
482.23	1650.66
482.44	1753.06
482.65	1808.36
482.85	1763.30
483.06	1695.72
483.27	1757.16
483.47	1765.35
483.68	1671.14
483.89	1652.71
484.09	1732.58
484.30	1726.44
484.51	1738.73
484.71	1662.95
484.92	1632.23
485.13	1695.72
485.33	1656.81
485.54	1681.38
485.75	1718.25
485.95	1751.01
486.16	1634.28
486.37	1679.33
486.57	1648.61
486.78	1708.01
486.98	1699.81
487.19	1656.81
487.40	1710.05
487.60	1705.96
487.81	1705.96
488.02	1621.99
488.22	1642.47
488.43	1716.20
488.64	1662.95
488.84	1640.42
489.05	1691.62
489.25	1712.10
489.46	1660.90
489.67	1685.48
489.87	1771.49
490.08	1683.43
490.29	1593.32
490.49	1814.50
490.70	1771.49
490.90	1685.48
491.11	1638.38
491.32	1705.96
491.52	1712.10
491.73	1716.20
491.94	1699.81
492.14	1619.94
492.35	1630.18
492.55	1753.06
492.76	1712.10
492.97	1703.91
493.17	1781.73
493.38	1671.14
493.58	1898.47
493.79	1642.47
494.00	1642.47
494.20	1615.85
494.41	1726.44
494.61	1742.82
494.82	1734.63
495.02	1638.38
495.23	1814.50
495.44	1732.58
495.64	1691.62
495.85	1632.23
496.05	1697.77
496.26	1751.01
496.47	1724.39
496.67	1654.76
496.88	1767.40
497.08	1736.68
497.29	1677.29
497.49	1828.84
497.70	1697.77
497.91	1654.76
498.11	1816.55
498.32	1689.57
498.52	1716.20
498.73	1630.18
498.93	1748.97
499.14	1746.92
499.34	1771.49
499.55	1773.54
499.76	1605.61
499.96	1744.87
500.17	1734.63
500.37	1728.49
500.58	1671.14
500.78	1671.14
500.99	1730.53
501.19	1722.34
501.40	1755.11
501.60	1617.90
501.81	1669.09
502.02	1708.01
502.22	1638.38
502.43	1693.67
502.63	1851.36
502.84	1757.16
503.04	1736.68
503.25	1710.05
503.45	1773.54
503.66	1576.94
503.86	1787.88
504.07	1716.20
504.27	1705.96
504.48	1642.47
504.68	1724.39
504.89	1828.84
505.09	1617.90
505.30	1744.87
505.50	1716.20
505.71	1652.71
505.91	1787.88
506.12	1705.96
506.32	1697.77
506.53	1665.00
506.73	1675.24
506.94	1638.38
507.14	1681.38
507.35	1755.11
507.55	1691.62
507.76	1685.48
507.96	1605.61
508.17	1748.97
508.37	1630.18
508.58	1705.96
508.78	1734.63
508.99	1880.04
509.19	1751.01
509.40	1748.97
509.60	1675.24
509.81	1771.49
510.01	1595.37
510.22	1669.09
510.42	1738.73
510.63	1718.25
510.83	1626.09
511.04	1708.01
511.24	1787.88
511.44	1669.09
511.65	1679.33
511.85	1654.76
512.06	1714.15
512.26	1654.76
512.47	1722.34
512.67	1642.47
512.88	1785.83
513.08	1630.18
513.29	1714.15
513.49	1599.46
513.69	1695.72
513.90	1658.85
514.10	1765.35
514.31	1789.92
514.51	1665.00
514.72	1720.29
514.92	1806.31
515.13	1701.86
515.33	1650.66
515.53	1587.18
515.74	1757.16
515.94	1708.01
516.15	1798.12
516.35	1619.94
516.56	1632.23
516.76	1667.05
516.96	1726.44
517.17	1681.38
517.37	1617.90
517.58	1626.09
517.78	1683.43
517.99	1804.26
518.19	1894.37
518.39	1660.90
518.60	1757.16
518.80	1662.95
519.01	1742.82
519.21	1679.33
519.41	1689.57
519.62	1658.85
519.82	1755.11
520.03	1644.52
520.23	1679.33
520.43	1667.05
520.64	1839.08
520.84	1808.36
521.05	1656.81
521.25	1806.31
521.45	1740.77
521.66	1591.27
521.86	1695.72
522.07	1708.01
522.27	1687.53
522.47	1611.75
522.68	1726.44
522.88	1753.06
523.08	1769.44
523.29	1593.32
523.49	1673.19
523.70	1714.15
523.90	1724.39
524.10	1773.54
524.31	1585.13
524.51	1548.26
524.71	1738.73
524.92	1669.09
525.12	1624.04
525.33	1681.38
525.53	1748.97
525.73	1798.12
525.94	1650.66
526.14	1742.82
526.34	1724.39
526.55	1613.80
526.75	1746.92
526.95	1746.92
527.16	1658.85
527.36	1708.01
527.56	1705.96
527.77	1638.38
527.97	1693.67
528.17	1642.47
528.38	1667.05
528.58	1765.35
528.78	1642.47
528.99	1640.42
529.19	1667.05
529.39	1556.46
529.60	1658.85
529.80	1646.57
530.00	1624.04
530.21	1771.49
530.41	1691.62
530.61	1771.49
530.82	1638.38
531.02	1695.72
531.22	1744.87
531.43	1714.15
531.63	1712.10
531.83	1720.29
532.04	1779.68
532.24	1683.43
532.44	1683.43
532.64	1753.06
532.85	1677.29
533.05	1665.00
533.25	1712.10
533.46	1683.43
533.66	1796.07
533.86	1697.77
534.07	1783.78
534.27	1566.70
534.47	1753.06
534.67	1759.21
534.88	1662.95
535.08	1693.67
535.28	1789.92
535.49	1648.61
535.69	1830.88
535.89	1736.68
536.09	1681.38
536.30	1728.49
536.50	1669.09
536.70	1798.12
536.91	1601.51
537.11	1720.29
537.31	1730.53
537.51	1699.81
537.72	1701.86
537.92	1753.06
538.12	1736.68
538.32	1757.16
538.53	1736.68
538.73	1687.53
538.93	1648.61
539.13	1703.91
539.34	1679.33
539.54	1640.42
539.74	1689.57
539.94	1675.24
540.15	1798.12
540.35	1689.57
540.55	1679.33
540.75	1677.29
540.96	1753.06
541.16	1650.66
541.36	1718.25
541.56	1748.97
541.77	1818.60
541.97	1755.11
542.17	1662.95
542.37	1759.21
542.58	1728.49
542.78	1767.40
542.98	1656.81
543.18	1658.85
543.38	1798.12
543.59	1726.44
543.79	1693.67
543.99	1732.58
544.19	1679.33
544.40	1771.49
544.60	1617.90
544.80	1673.19
545.00	1648.61
545.20	1783.78
545.41	1748.97
545.61	1650.66
545.81	1648.61
546.01	1734.63
546.21	1671.14
546.42	1753.06
546.62	1744.87
546.82	1630.18
547.02	1665.00
547.22	1675.24
547.43	1755.11
547.63	1763.30
547.83	1724.39
548.03	1642.47
548.23	1699.81
548.44	1798.12
548.64	1738.73
548.84	1814.50
549.04	1601.51
549.24	1798.12
549.45	1929.19
549.65	1650.66
549.85	1751.01
550.05	1714.15
550.25	1564.65
550.45	1746.92
550.66	1755.11
550.86	1679.33
551.06	1746.92
551.26	1691.62
551.46	1712.10
551.66	1791.97
551.87	1744.87
552.07	1591.27
552.27	1751.01
552.47	1744.87
552.67	1667.05
552.87	1742.82
553.07	1689.57
553.28	1710.05
553.48	1751.01
553.68	1609.70
553.88	1832.93
554.08	1691.62
554.28	1699.81
554.48	1685.48
554.69	1689.57
554.89	1669.09
555.09	1587.18
555.29	1708.01
555.49	1722.34
555.69	1624.04
555.89	1671.14
556.10	1712.10
556.30	1669.09
556.50	1740.77
556.70	1673.19
556.90	1722.34
557.10	1693.67
557.30	1689.57
557.50	1597.42
557.70	1697.77
557.91	1748.97
558.11	1681.38
558.31	1841.12
558.51	1763.30
558.71	1638.38
558.91	1675.24
559.11	1621.99
559.31	1593.32
559.51	1708.01
559.72	1699.81
559.92	1712.10
560.12	1650.66
560.32	1765.35
560.52	1693.67
560.72	1683.43
560.92	1714.15
561.12	1742.82
561.32	1654.76
561.52	1650.66
561.72	1820.64
561.93	1800.16
562.13	1679.33
562.33	1708.01
562.53	1654.76
562.73	1644.52
562.93	1679.33
563.13	1761.25
563.33	1789.92
563.53	1726.44
563.73	1834.98
563.93	1810.40
564.13	1814.50
564.33	1673.19
564.53	1658.85
564.74	1701.86
564.94	1681.38
565.14	1787.88
565.34	1722.34
565.54	1681.38
565.74	1648.61
565.94	1673.19
566.14	1673.19
566.34	1761.25
566.54	1705.96
566.74	1689.57
566.94	1716.20
567.14	1738.73
567.34	1738.73
567.54	1710.05
567.74	1712.10
567.94	1679.33
568.14	1693.67
568.34	1824.74
568.54	1677.29
568.74	1650.66
568.94	1699.81
569.14	1812.45
569.34	1748.97
569.54	1681.38
569.75	1673.19
569.95	1724.39
570.15	1777.64
570.35	1712.10
570.55	1681.38
570.75	1609.70
570.95	1724.39
571.15	1665.00
571.35	1681.38
571.55	1677.29
571.75	1691.62
571.95	1748.97
572.15	1687.53
572.35	1734.63
572.55	1736.68
572.75	1599.46
572.95	1624.04
573.15	1673.19
573.35	1777.64
573.55	1759.21
573.75	1677.29
573.95	1789.92
574.15	1738.73
574.35	1689.57
574.55	1662.95
574.75	1712.10
574.95	1660.90
575.15	1644.52
575.34	1738.73
575.54	1671.14
575.74	1648.61
575.94	1677.29
576.14	1624.04
576.34	1746.92
576.54	1638.38
576.74	1732.58
576.94	1671.14
577.14	1693.67
577.34	1722.34
577.54	1617.90
577.74	1535.98
577.94	1755.11
578.14	1630.18
578.34	1726.44
578.54	1650.66
578.74	1730.53
578.94	1740.77
579.14	1751.01
579.34	1632.23
579.54	1761.25
579.74	1607.66
579.94	1728.49
580.13	1744.87
580.33	1634.28
580.53	1652.71
580.73	1703.91
580.93	1761.25
581.13	1591.27
581.33	1722.34
581.53	1703.91
581.73	1691.62
581.93	1564.65
582.13	1759.21
582.33	1667.05
582.53	1630.18
582.73	1810.40
582.92	1634.28
583.12	1736.68
583.32	1621.99
583.52	1722.34
583.72	1812.45
583.92	1781.73
584.12	1734.63
584.32	1755.11
584.52	1597.42
584.72	1695.72
584.92	1697.77
585.11	1716.20
585.31	1714.15
585.51	1685.48
585.71	1814.50
585.91	1740.77
586.11	1691.62
586.31	1718.25
586.51	1712.10
586.71	1765.35
586.91	1699.81
587.10	1771.49
587.30	1834.98
587.50	1763.30
587.70	1720.29
587.90	1730.53
588.10	1650.66
588.30	1658.85
588.50	1654.76
588.69	1689.57
588.89	1703.91
589.09	1773.54
589.29	1605.61
589.49	1646.57
589.69	1632.23
589.89	1775.59
590.08	1675.24
590.28	1714.15
590.48	1722.34
590.68	1640.42
590.88	1687.53
591.08	1751.01
591.28	1810.40
591.47	1714.15
591.67	1591.27
591.87	1705.96
592.07	1828.84
592.27	1630.18
592.47	1691.62
592.67	1689.57
592.86	1603.56
593.06	1787.88
593.26	1708.01
593.46	1761.25
593.66	1601.51
593.86	1732.58
594.05	1724.39
594.25	1708.01
594.45	1628.14
594.65	1837.03
594.85	1716.20
595.05	1738.73
595.24	1599.46
595.44	1697.77
595.64	1712.10
595.84	1740.77
596.04	1660.90
596.23	1679.33
596.43	1681.38
596.63	1736.68
596.83	1728.49
597.03	1871.84
597.22	1658.85
597.42	1697.77
597.62	1763.30
597.82	1775.59
598.02	1859.56
598.21	1708.01
598.41	1703.91
598.61	1691.62
598.81	1642.47
599.01	1716.20
599.20	1695.72
599.40	1679.33
599.60	1748.97
599.80	1742.82
600.00	1800.16
600.19	1667.05
600.39	1621.99
600.59	1775.59
600.79	1781.73
600.98	1773.54
601.18	1722.34
601.38	1751.01
601.58	1648.61
601.78	1777.64
601.97	1779.68
602.17	1712.10
602.37	1716.20
602.57	1806.31
602.76	1667.05
602.96	1654.76
603.16	1705.96
603.36	1810.40
603.55	1667.05
603.75	1703.91
603.95	1675.24
604.15	1765.35
604.34	1734.63
604.54	1726.44
604.74	1722.34
604.94	1714.15
605.13	1650.66
605.33	1699.81
605.53	1605.61
605.73	1789.92
605.92	1714.15
606.12	1748.97
606.32	1753.06
606.52	1822.69
606.71	1753.06
606.91	1734.63
607.11	1718.25
607.30	1699.81
607.50	1646.57
607.70	1857.51
607.90	1671.14
608.09	1630.18
608.29	1765.35
608.49	1785.83
608.68	1628.14
608.88	1695.72
609.08	1720.29
609.28	1708.01
609.47	1748.97
609.67	1798.12
609.87	1691.62
610.06	1781.73
610.26	1710.05
610.46	1814.50
610.66	1640.42
610.85	1714.15
611.05	1828.84
611.25	1705.96
611.44	1679.33
611.64	1673.19
611.84	1675.24
612.03	1675.24
612.23	1638.38
612.43	1777.64
612.62	1730.53
612.82	1765.35
613.02	1791.97
613.21	1779.68
613.41	1699.81
613.61	1667.05
613.80	1683.43
614.00	1683.43
614.20	1773.54
614.39	1853.41
614.59	1777.64
614.79	1632.23
614.98	1755.11
615.18	1693.67
615.38	1714.15
615.57	1683.43
615.77	1894.37
615.97	1697.77
616.16	1685.48
616.36	1796.07
616.56	1773.54
616.75	1755.11
616.95	1679.33
617.15	1847.27
617.34	1671.14
617.54	1816.55
617.74	1800.16
617.93	1826.79
618.13	1667.05
618.32	1673.19
618.52	1677.29
618.72	1662.95
618.91	1777.64
619.11	1791.97
619.31	1783.78
619.50	1699.81
619.70	1697.77
619.90	1734.63
620.09	1675.24
620.29	1765.35
620.48	1859.56
620.68	1787.88
620.88	1798.12
621.07	1740.77
621.27	1683.43
621.46	1654.76
621.66	1705.96
621.86	1716.20
622.05	1699.81
622.25	1830.88
622.44	1765.35
622.64	1683.43
622.84	1695.72
623.03	1673.19
623.23	1677.29
623.42	1699.81
623.62	1787.88
623.82	1716.20
624.01	1748.97
624.21	1646.57
624.40	1828.84
624.60	1681.38
624.80	1744.87
624.99	1744.87
625.19	1748.97
625.38	1722.34
625.58	1665.00
625.77	1650.66
625.97	1755.11
626.17	1630.18
626.36	1650.66
626.56	1814.50
626.75	1746.92
626.95	1718.25
627.14	1730.53
627.34	1736.68
627.54	1769.44
627.73	1816.55
627.93	1712.10
628.12	1789.92
628.32	1738.73
628.51	1722.34
628.71	1845.22
628.90	1783.78
629.10	1681.38
629.30	1693.67
629.49	1728.49
629.69	1638.38
629.88	1720.29
630.08	1789.92
630.27	1865.70
630.47	1761.25
630.66	1662.95
630.86	1728.49
631.05	1675.24
631.25	1654.76
631.44	1767.40
631.64	1642.47
631.84	1679.33
632.03	1746.92
632.23	1701.86
632.42	1714.15
632.62	1718.25
632.81	1755.11
633.01	1695.72
633.20	1873.89
633.40	1847.27
633.59	1728.49
633.79	1691.62
633.98	1814.50
634.18	1775.59
634.37	1804.26
634.57	1714.15
634.76	1677.29
634.96	1779.68
635.15	1896.42
635.35	1783.78
635.54	1802.21
635.74	1740.77
635.93	1648.61
636.13	1722.34
636.32	1724.39
636.52	1728.49
636.71	1736.68
636.91	1730.53
637.10	1896.42
637.30	1687.53
637.49	1722.34
637.69	1718.25
637.88	1769.44
638.08	1689.57
638.27	1634.28
638.46	1751.01
638.66	1746.92
638.85	1671.14
639.05	1695.72
639.24	1781.73
639.44	1779.68
639.63	1820.64
639.83	1732.58
640.02	1763.30
640.22	1738.73
640.41	1705.96
640.61	1748.97
640.80	1740.77
640.99	1705.96
641.19	1779.68
641.38	1798.12
641.58	1679.33
641.77	1675.24
641.97	1650.66
642.16	1687.53
642.36	1826.79
642.55	1679.33
642.74	1718.25
642.94	1703.91
643.13	1705.96
643.33	1814.50
643.52	1726.44
643.72	1716.20
643.91	1699.81
644.10	1761.25
644.30	1660.90
644.49	1697.77
644.69	1726.44
644.88	1648.61
645.08	1757.16
645.27	1767.40
645.46	1665.00
645.66	1738.73
645.85	1714.15
646.05	1683.43
646.24	1650.66
646.43	1667.05
646.63	1771.49
646.82	1718.25
647.02	1757.16
647.21	1830.88
647.40	1724.39
647.60	1626.09
647.79	1814.50
647.99	1681.38
648.18	1699.81
648.37	1826.79
648.57	1775.59
648.76	1722.34
648.96	1714.15
649.15	1736.68
649.34	1753.06
649.54	1773.54
649.73	1609.70
649.92	1677.29
650.12	1748.97
650.31	1656.81
650.51	2021.35
650.70	1681.38
650.89	1720.29
651.09	1796.07
651.28	1798.12
651.47	1593.32
651.67	1732.58
651.86	1771.49
652.06	1728.49
652.25	1802.21
652.44	1632.23
652.64	1673.19
652.83	1804.26
653.02	1712.10
653.22	1746.92
653.41	1681.38
653.60	1667.05
653.80	1701.86
653.99	1796.07
654.18	1710.05
654.38	1548.26
654.57	1847.27
654.76	1777.64
654.96	1679.33
655.15	1687.53
655.34	1738.73
655.54	1611.75
655.73	1673.19
655.92	1679.33
656.12	1650.66
656.31	1779.68
656.50	1777.64
656.70	1691.62
656.89	1646.57
657.08	1652.71
657.28	1712.10
657.47	1665.00
657.66	1722.34
657.86	1783.78
658.05	1697.77
658.24	1722.34
658.43	1884.13
658.63	1568.74
658.82	1783.78
659.01	1740.77
659.21	1789.92
659.40	1685.48
659.59	1673.19
659.79	1703.91
659.98	1779.68
660.17	1765.35
660.36	1757.16
660.56	1771.49
660.75	1769.44
660.94	1699.81
661.14	1748.97
661.33	1662.95
661.52	1660.90
661.71	1791.97
661.91	1701.86
662.10	1759.21
662.29	1710.05
662.49	1744.87
662.68	1673.19
662.87	1693.67
663.06	1843.17
663.26	1746.92
663.45	1923.04
663.64	1730.53
663.83	1744.87
664.03	1837.03
664.22	1781.73
664.41	1871.84
664.60	1773.54
664.80	1646.57
664.99	1804.26
665.18	1728.49
665.37	1734.63
665.57	1789.92
665.76	1732.58
665.95	1759.21
666.14	1742.82
666.34	1705.96
666.53	1746.92
666.72	1675.24
666.91	1654.76
667.11	1689.57
667.30	1886.18
667.49	1744.87
667.68	1824.74
667.87	1779.68
668.07	1845.22
668.26	1662.95
668.45	1642.47
668.64	1675.24
668.84	1867.75
669.03	1755.11
669.22	1810.40
669.41	1763.30
669.60	1693.67
669.80	1748.97
669.99	1728.49
670.18	1708.01
670.37	1800.16
670.57	1759.21
670.76	1724.39
670.95	1810.40
671.14	1716.20
671.33	1658.85
671.53	1722.34
671.72	1748.97
671.91	1751.01
672.10	1757.16
672.29	1718.25
672.48	1638.38
672.68	1705.96
672.87	1634.28
673.06	1787.88
673.25	1738.73
673.44	1687.53
673.64	1609.70
673.83	1759.21
674.02	1697.77
674.21	1810.40
674.40	1742.82
674.59	1748.97
674.79	1765.35
674.98	1845.22
675.17	1806.31
675.36	1640.42
675.55	1638.38
675.74	1689.57
675.94	1847.27
676.13	1708.01
676.32	1695.72
676.51	1677.29
676.70	1607.66
676.89	1705.96
677.08	1687.53
677.28	1880.04
677.47	1699.81
677.66	1744.87
677.85	1638.38
678.04	1769.44
678.23	1753.06
678.42	1732.58
678.62	1714.15
678.81	1714.15
679.00	1642.47
679.19	1869.80
679.38	1751.01
679.57	1716.20
679.76	1677.29
679.96	1695.72
680.15	1826.79
680.34	1724.39
680.53	1796.07
680.72	1773.54
680.91	1716.20
681.10	1796.07
681.29	1705.96
681.48	1755.11
681.68	1755.11
681.87	1769.44
682.06	1744.87
682.25	1730.53
682.44	1667.05
682.63	1796.07
682.82	1626.09
683.01	1744.87
683.20	1769.44
683.39	1849.32
683.59	1732.58
683.78	1773.54
683.97	1679.33
684.16	1708.01
684.35	1679.33
684.54	1818.60
684.73	1689.57
684.92	1611.75
685.11	1814.50
685.30	1779.68
685.49	1755.11
685.69	1837.03
685.88	1667.05
686.07	1753.06
686.26	1689.57
686.45	1734.63
686.64	1800.16
686.83	1730.53
687.02	1724.39
687.21	1832.93
687.40	1777.64
687.59	1849.32
687.78	1714.15
687.97	1806.31
688.16	1763.30
688.35	1761.25
688.54	1701.86
688.74	1642.47
688.93	1773.54
689.12	1771.49
689.31	1794.02
689.50	1730.53
689.69	1708.01
689.88	1765.35
690.07	1712.10
690.26	1712.10
690.45	1673.19
690.64	1736.68
690.83	1656.81
691.02	1650.66
691.21	1712.10
691.40	1687.53
691.59	1789.92
691.78	1748.97
691.97	1716.20
692.16	1675.24
692.35	1718.25
692.54	1773.54
692.73	1722.34
692.92	1687.53
693.11	1716.20
693.30	1781.73
693.49	1687.53
693.68	1843.17
693.87	1689.57
694.06	1689.57
694.25	1697.77
694.44	1658.85
694.63	1716.20
694.82	1621.99
695.01	1732.58
695.20	1691.62
695.39	1732.58
695.58	1732.58
695.77	1714.15
695.96	1701.86
696.15	1689.57
696.34	1708.01
696.53	1728.49
696.72	1654.76
696.91	1638.38
697.10	1781.73
697.29	1705.96
697.48	1759.21
697.67	1757.16
697.86	1710.05
698.05	1626.09
698.24	1681.38
698.43	1671.14
698.62	1781.73
698.81	1728.49
699.00	1806.31
699.19	1789.92
699.38	1722.34
699.57	1658.85
699.76	1759.21
699.95	1671.14
700.14	1730.53
700.32	1744.87
700.51	1656.81
700.70	1724.39
700.89	1734.63
701.08	1828.84
701.27	1705.96
701.46	1800.16
701.65	1708.01
701.84	1679.33
702.03	1630.18
702.22	1763.30
702.41	1740.77
702.60	1699.81
702.79	1779.68
702.98	1660.90
703.17	1757.16
703.35	1755.11
703.54	1740.77
703.73	1714.15
703.92	1656.81
704.11	1722.34
704.30	1728.49
704.49	1769.44
704.68	1710.05
704.87	1697.77
705.06	1740.77
705.25	1638.38
705.43	1726.44
705.62	1662.95
705.81	1722.34
706.00	1679.33
706.19	1687.53
706.38	1693.67
706.57	1814.50
706.76	1748.97
706.95	1744.87
707.14	1714.15
707.32	1720.29
707.51	1626.09
707.70	1708.01
707.89	1748.97
708.08	1722.34
708.27	1761.25
708.46	1746.92
708.65	1691.62
708.84	1740.77
709.02	1675.24
709.21	1691.62
709.40	1658.85
709.59	1740.77
709.78	1685.48
709.97	1636.33
710.16	1720.29
710.34	1728.49
710.53	1691.62
710.72	1712.10
710.91	1800.16
711.10	1720.29
711.29	1708.01
711.48	1787.88
711.66	1755.11
711.85	1658.85
712.04	1812.45
712.23	1757.16
712.42	1714.15
712.61	1773.54
712.80	1701.86
712.98	1699.81
713.17	1630.18
713.36	1755.11
713.55	1822.69
713.74	1714.15
713.93	1791.97
714.11	1681.38
714.30	1601.51
714.49	1751.01
714.68	1722.34
714.87	1642.47
715.06	1785.83
715.24	1781.73
715.43	1691.62
715.62	1650.66
715.81	1716.20
716.00	1673.19
716.18	1681.38
716.37	1744.87
716.56	1693.67
716.75	1748.97
716.94	1677.29
717.12	1761.25
717.31	1691.62
717.50	1644.52
717.69	1732.58
717.88	1687.53
718.06	1640.42
718.25	1816.55
718.44	1640.42
718.63	1730.53
718.82	1607.66
719.00	1683.43
719.19	1824.74
719.38	1695.72
719.57	1708.01
719.76	1724.39
719.94	1695.72
720.13	1728.49
720.32	1730.53
720.51	1673.19
720.69	1740.77
720.88	1796.07
721.07	1675.24
721.26	1869.80
721.44	1794.02
721.63	1673.19
721.82	1703.91
722.01	1810.40
722.20	1699.81
722.38	1705.96
722.57	1720.29
722.76	1779.68
722.95	1675.24
723.13	1695.72
723.32	1779.68
723.51	1746.92
723.70	1761.25
723.88	1708.01
724.07	1652.71
724.26	1853.41
724.44	1697.77
724.63	1728.49
724.82	1734.63
725.01	1748.97
725.19	1730.53
725.38	1667.05
725.57	1662.95
725.76	1855.46
725.94	1630.18
726.13	1673.19
726.32	1665.00
726.51	1652.71
726.69	1685.48
726.88	1726.44
727.07	1742.82
727.25	1726.44
727.44	1705.96
727.63	1769.44
727.82	1669.09
728.00	1693.67
728.19	1779.68
728.38	1724.39
728.56	1630.18
728.75	1847.27
728.94	1748.97
729.12	1712.10
729.31	1720.29
729.50	1634.28
729.69	1796.07
729.87	1681.38
730.06	1699.81
730.25	1705.96
730.43	1771.49
730.62	1634.28
730.81	1687.53
730.99	1689.57
731.18	1679.33
731.37	1671.14
731.55	1718.25
731.74	1697.77
731.93	1787.88
732.11	1738.73
732.30	1662.95
732.49	1732.58
732.67	1619.94
732.86	1648.61
733.05	1718.25
733.23	1753.06
733.42	1708.01
733.61	1669.09
733.79	1781.73
733.98	1708.01
734.17	1609.70
734.35	1767.40
734.54	1808.36
734.73	1794.02
734.91	1617.90
735.10	1734.63
735.29	1738.73
735.47	1619.94
735.66	1611.75
735.84	1839.08
736.03	1611.75
736.22	1644.52
736.40	1730.53
736.59	1658.85
736.78	1765.35
736.96	1683.43
737.15	1660.90
737.33	1755.11
737.52	1609.70
737.71	1656.81
737.89	1689.57
738.08	1648.61
738.27	1798.12
738.45	1765.35
738.64	1703.91
738.82	1644.52
739.01	1701.86
739.20	1648.61
739.38	1826.79
739.57	1677.29
739.75	1771.49
739.94	1759.21
740.13	1605.61
740.31	1824.74
740.50	1705.96
740.68	1687.53
740.87	1736.68
741.06	1775.59
741.24	1783.78
741.43	1644.52
741.61	1644.52
741.80	1687.53
741.99	1714.15
742.17	1765.35
742.36	1636.33
742.54	1624.04
742.73	1779.68
742.91	1703.91
743.10	1662.95
743.29	1822.69
743.47	1748.97
743.66	1605.61
743.84	1710.05
744.03	1724.39
744.21	1662.95
744.40	1724.39
744.59	1742.82
744.77	1720.29
744.96	1720.29
745.14	1697.77
745.33	1720.29
745.51	1802.21
745.70	1599.46
745.88	1662.95
746.07	1697.77
746.26	1757.16
746.44	1679.33
746.63	1673.19
746.81	1732.58
747.00	1736.68
747.18	1701.86
747.37	1658.85
747.55	1720.29
747.74	1937.38
747.92	1765.35
748.11	1744.87
748.29	1705.96
748.48	1648.61
748.66	1722.34
748.85	1673.19
749.03	1744.87
749.22	1658.85
749.41	1691.62
749.59	1691.62
749.78	1814.50
749.96	1638.38
750.15	1671.14
750.33	1791.97
750.52	1642.47
750.70	1699.81
750.89	1732.58
751.07	1679.33
751.26	1732.58
751.44	1638.38
751.63	1746.92
751.81	1677.29
752.00	1589.22
752.18	1648.61
752.37	1746.92
752.55	1601.51
752.74	1658.85
752.92	1658.85
753.10	1689.57
753.29	1748.97
753.47	1732.58
753.66	1585.13
753.84	1665.00
754.03	1568.74
754.21	1667.05
754.40	1744.87
754.58	1773.54
754.77	1798.12
754.95	1662.95
755.14	1757.16
755.32	1701.86
755.51	1662.95
755.69	1773.54
755.88	1646.57
756.06	1728.49
756.24	1705.96
756.43	1662.95
756.61	1730.53
756.80	1681.38
756.98	1689.57
757.17	1751.01
757.35	1667.05
757.54	1710.05
757.72	1640.42
757.90	1748.97
758.09	1718.25
758.27	1646.57
758.46	1640.42
758.64	1757.16
758.83	1730.53
759.01	1703.91
759.19	1785.83
759.38	1771.49
759.56	1765.35
759.75	1667.05
759.93	1736.68
760.12	1650.66
760.30	1734.63
760.48	1716.20
760.67	1763.30
760.85	1574.89
761.04	1628.14
761.22	1617.90
761.40	1656.81
761.59	1525.74
761.77	1662.95
761.96	1718.25
762.14	1679.33
762.32	1720.29
762.51	1718.25
762.69	1679.33
762.88	1785.83
763.06	1646.57
763.24	1654.76
763.43	1689.57
763.61	1667.05
763.80	1652.71
763.98	1716.20
764.16	1640.42
764.35	1648.61
764.53	1765.35
764.72	1642.47
764.90	1761.25
765.08	1669.09
765.27	1691.62
765.45	1642.47
765.63	1685.48
765.82	1734.63
766.00	1689.57
766.18	1681.38
766.37	1636.33
766.55	1681.38
766.74	1748.97
766.92	1646.57
767.10	1671.14
767.29	1716.20
767.47	1718.25
767.65	1609.70
767.84	1683.43
768.02	1763.30
768.20	1687.53
768.39	1683.43
768.57	1634.28
768.75	1634.28
768.94	1830.88
769.12	1648.61
769.30	1648.61
769.49	1654.76
769.67	1658.85
769.85	1779.68
770.04	1656.81
770.22	1650.66
770.40	1753.06
770.59	1673.19
770.77	1718.25
770.95	1695.72
771.14	1695.72
771.32	1683.43
771.50	1634.28
771.69	1642.47
771.87	1693.67
772.05	1658.85
772.24	1611.75
772.42	1685.48
772.60	1673.19
772.78	1765.35
772.97	1609.70
773.15	1695.72
773.33	1720.29
773.52	1679.33
773.70	1765.35
773.88	1740.77
774.07	1689.57
774.25	1701.86
774.43	1701.86
774.61	1626.09
774.80	1683.43
774.98	1642.47
775.16	1720.29
775.34	1679.33
775.53	1732.58
775.71	1730.53
775.89	1693.67
776.08	1662.95
776.26	1630.18
776.44	1716.20
776.62	1679.33
776.81	1697.77
776.99	1710.05
777.17	1736.68
777.35	1691.62
777.54	1683.43
777.72	1722.34
777.90	1677.29
778.08	1667.05
778.27	1673.19
778.45	1597.42
778.63	1716.20
778.81	1785.83
779.00	1738.73
779.18	1697.77
779.36	1746.92
779.54	1710.05
779.73	1751.01
779.91	1740.77
780.09	1671.14
780.27	1669.09
780.46	1691.62
780.64	1642.47
780.82	1736.68
781.00	1673.19
781.19	1665.00
781.37	1642.47
781.55	1744.87
781.73	1662.95
781.91	1624.04
782.10	1748.97
782.28	1755.11
782.46	1701.86
782.64	1714.15
782.82	1744.87
783.01	1687.53
783.19	1765.35
783.37	1679.33
783.55	1658.85
783.74	1736.68
783.92	1628.14
784.10	1701.86
784.28	1740.77
784.46	1705.96
784.64	1624.04
784.83	1787.88
785.01	1787.88
785.19	1804.26
785.37	1781.73
785.55	1687.53
785.74	1705.96
785.92	1591.27
786.10	1654.76
786.28	1703.91
786.46	1732.58
786.64	1648.61
786.83	1617.90
787.01	1753.06
787.19	1716.20
787.37	1773.54
787.55	1681.38
787.74	1673.19
787.92	1652.71
788.10	1718.25
788.28	1642.47
788.46	1683.43
788.64	1652.71
788.82	1632.23
789.01	1669.09
789.19	1732.58
789.37	1718.25
789.55	1603.56
789.73	1662.95
789.91	1701.86
790.09	1613.80
790.28	1624.04
790.46	1624.04
790.64	1693.67
790.82	1597.42
791.00	1691.62
791.18	1724.39
791.36	1728.49
791.55	1626.09
791.73	1652.71
791.91	1621.99
792.09	1724.39
792.27	1564.65
792.45	1705.96
792.63	1751.01
792.81	1630.18
793.00	1724.39
793.18	1724.39
793.36	1785.83
793.54	1726.44
793.72	1695.72
793.90	1652.71
794.08	1634.28
794.26	1757.16
794.44	1574.89
794.62	1679.33
794.81	1605.61
794.99	1722.34
795.17	1847.27
795.35	1662.95
795.53	1613.80
795.71	1658.85
795.89	1681.38
796.07	1638.38
796.25	1757.16
796.43	1765.35
796.61	1722.34
796.80	1609.70
796.98	1671.14
797.16	1681.38
797.34	1689.57
797.52	1591.27
797.70	1796.07
797.88	1738.73
798.06	1658.85
798.24	1746.92
798.42	1687.53
798.60	1734.63
798.78	1636.33
798.96	1736.68
799.14	1658.85
799.32	1773.54
799.51	1675.24
799.69	1757.16
799.87	1785.83
800.05	1740.77
800.23	1595.37
800.41	1671.14
800.59	1757.16
800.77	1636.33
800.95	1589.22
801.13	1757.16
801.31	1662.95
801.49	1818.60
801.67	1654.76
801.85	1646.57
802.03	1619.94
802.21	1777.64
802.39	1578.98
802.57	1691.62
802.75	1759.21
802.93	1822.69
803.11	1583.08
803.29	1703.91
803.47	1718.25
803.65	1677.29
803.83	1585.13
804.01	1683.43
804.19	1671.14
804.37	1660.90
804.55	1632.23
804.73	1722.34
804.91	1599.46
805.09	1781.73
805.27	1736.68
805.45	1673.19
805.63	1695.72
805.81	1699.81
805.99	1771.49
806.17	1691.62
806.35	1564.65
806.53	1710.05
806.71	1710.05
806.89	1662.95
807.07	1703.91
807.25	1734.63
807.43	1591.27
807.61	1732.58
807.79	1712.10
807.97	1646.57
808.15	1654.76
808.33	1710.05
808.51	1820.64
808.69	1708.01
808.87	1687.53
809.05	1621.99
809.23	1687.53
809.41	1601.51
809.59	1607.66
809.77	1748.97
809.95	1617.90
810.13	1732.58
810.31	1699.81
810.49	1691.62
810.67	1677.29
810.84	1712.10
811.02	1613.80
811.20	1578.98
811.38	1779.68
811.56	1603.56
811.74	1669.09
811.92	1681.38
812.10	1673.19
812.28	1689.57
812.46	1683.43
812.64	1679.33
812.82	1558.50
813.00	1634.28
813.18	1691.62
813.36	1619.94
813.53	1732.58
813.71	1791.97
813.89	1705.96
814.07	1677.29
814.25	1728.49
814.43	1634.28
814.61	1687.53
814.79	1703.91
814.97	1650.66
815.15	1703.91
815.33	1599.46
815.50	1624.04
815.68	1630.18
815.86	1658.85
816.04	1650.66
816.22	1626.09
816.40	1652.71
816.58	1624.04
816.76	1609.70
816.94	1675.24
817.11	1544.17
817.29	1667.05
817.47	1652.71
817.65	1691.62
817.83	1601.51
818.01	1638.38
818.19	1636.33
818.37	1740.77
818.54	1818.60
818.72	1708.01
818.90	1683.43
819.08	1609.70
819.26	1691.62
819.44	1757.16
819.62	1640.42
819.80	1560.55
819.97	1693.67
820.15	1697.77
820.33	1593.32
820.51	1644.52
820.69	1632.23
820.87	1673.19
821.05	1732.58
821.22	1591.27
821.40	1609.70
821.58	1697.77
821.76	1617.90
821.94	1638.38
822.12	1644.52
822.29	1697.77
822.47	1640.42
822.65	1730.53
822.83	1671.14
823.01	1683.43
823.19	1652.71
823.36	1660.90
823.54	1660.90
823.72	1708.01
823.90	1753.06
824.08	1628.14
824.25	1587.18
824.43	1714.15
824.61	1660.90
824.79	1736.68
824.97	1601.51
825.15	1675.24
825.32	1689.57
825.50	1644.52
825.68	1566.70
825.86	1681.38
826.04	1662.95
826.21	1730.53
826.39	1591.27
826.57	1671.14
826.75	1712.10
826.93	1708.01
827.10	1632.23
827.28	1667.05
827.46	1671.14
827.64	1689.57
827.81	1667.05
827.99	1597.42
828.17	1685.48
828.35	1658.85
828.53	1699.81
828.70	1652.71
828.88	1642.47
829.06	1621.99
829.24	1708.01
829.41	1650.66
829.59	1730.53
829.77	1703.91
829.95	1671.14
830.12	1591.27
830.30	1718.25
830.48	1660.90
830.66	1646.57
830.84	1687.53
831.01	1738.73
831.19	1646.57
831.37	1724.39
831.55	1626.09
831.72	1685.48
831.90	1718.25
832.08	1759.21
832.25	1673.19
832.43	1656.81
832.61	1724.39
832.79	1576.94
832.96	1714.15
833.14	1714.15
833.32	1724.39
833.50	1638.38
833.67	1712.10
833.85	1687.53
834.03	1597.42
834.20	1683.43
834.38	1710.05
834.56	1665.00
834.74	1705.96
834.91	1646.57
835.09	1751.01
835.27	1660.90
835.44	1701.86
835.62	1638.38
835.80	1595.37
835.98	1656.81
836.15	1687.53
836.33	1716.20
836.51	1615.85
836.68	1683.43
836.86	1638.38
837.04	1746.92
837.21	1769.44
837.39	1689.57
837.57	1796.07
837.75	1738.73
837.92	1585.13
838.10	1615.85
838.28	1595.37
838.45	1656.81
838.63	1638.38
838.81	1738.73
838.98	1669.09
839.16	1710.05
839.34	1640.42
839.51	1607.66
839.69	1652.71
839.87	1644.52
840.04	1724.39
840.22	1867.75
840.40	1703.91
840.57	1556.46
840.75	1687.53
840.93	1597.42
841.10	1544.17
841.28	1775.59
841.46	1716.20
841.63	1732.58
841.81	1540.07
841.98	1566.70
842.16	1802.21
842.34	1654.76
842.51	1591.27
842.69	1681.38
842.87	1607.66
843.04	1654.76
843.22	1568.74
843.40	1570.79
843.57	1607.66
843.75	1591.27
843.92	1703.91
844.10	1648.61
844.28	1681.38
844.45	1658.85
844.63	1679.33
844.81	1705.96
844.98	1771.49
845.16	1597.42
845.33	1740.77
845.51	1611.75
845.69	1712.10
845.86	1742.82
846.04	1617.90
846.21	1576.94
846.39	1652.71
846.57	1613.80
846.74	1652.71
846.92	1701.86
847.09	1632.23
847.27	1660.90
847.45	1605.61
847.62	1716.20
847.80	1761.25
847.97	1673.19
848.15	1599.46
848.32	1609.70
848.50	1728.49
848.68	1556.46
848.85	1710.05
849.03	1595.37
849.20	1613.80
849.38	1685.48
849.56	1611.75
849.73	1642.47
849.91	1621.99
850.08	1732.58
850.26	1517.54
850.43	1597.42
850.61	1662.95
850.78	1552.36
850.96	1628.14
851.14	1599.46
851.31	1757.16
851.49	1662.95
851.66	1673.19
851.84	1564.65
852.01	1724.39
852.19	1685.48
852.36	1675.24
852.54	1642.47
852.71	1611.75
852.89	1650.66
853.07	1638.38
853.24	1675.24
853.42	1542.12
853.59	1675.24
853.77	1638.38
853.94	1771.49
854.12	1828.84
854.29	1531.88
854.47	1630.18
854.64	1699.81
854.82	1619.94
854.99	1691.62
855.17	1726.44
855.34	1617.90
855.52	1650.66
855.69	1783.78
855.87	1642.47
856.04	1658.85
856.22	1665.00
856.39	1599.46
856.57	1646.57
856.74	1658.85
856.92	1781.73
857.09	1609.70
857.27	1619.94
857.44	1665.00
857.62	1742.82
857.79	1667.05
857.97	1642.47
858.14	1581.03
858.32	1701.86
858.49	1722.34
858.67	1716.20
858.84	1673.19
859.02	1746.92
859.19	1650.66
859.37	1556.46
859.54	1630.18
859.72	1630.18
859.89	1708.01
860.06	1503.21
860.24	1572.84
860.41	1712.10
860.59	1626.09
860.76	1656.81
860.94	1640.42
861.11	1736.68
861.29	1693.67
861.46	1609.70
861.64	1607.66
861.81	1724.39
861.98	1591.27
862.16	1689.57
862.33	1669.09
862.51	1597.42
862.68	1644.52
862.86	1689.57
863.03	1591.27
863.21	1662.95
863.38	1613.80
863.55	1581.03
863.73	1671.14
863.90	1687.53
864.08	1693.67
864.25	1658.85
864.43	1679.33
864.60	1626.09
864.77	1548.26
864.95	1634.28
865.12	1570.79
865.30	1732.58
865.47	1699.81
865.64	1685.48
865.82	1644.52
865.99	1781.73
866.17	1746.92
866.34	1701.86
866.51	1511.40
866.69	1669.09
866.86	1718.25
867.04	1722.34
867.21	1681.38
867.38	1646.57
867.56	1652.71
867.73	1726.44
867.91	1675.24
868.08	1691.62
868.25	1523.69
868.43	1624.04
868.60	1695.72
868.78	1587.18
868.95	1630.18
869.12	1718.25
869.30	1609.70
869.47	1710.05
869.64	1621.99
869.82	1673.19
869.99	1712.10
870.16	1677.29
870.34	1675.24
870.51	1705.96
870.69	1572.84
870.86	1679.33
871.03	1648.61
871.21	1615.85
871.38	1732.58
871.55	1738.73
871.73	1675.24
871.90	1595.37
872.07	1617.90
872.25	1564.65
872.42	1591.27
872.59	1587.18
872.77	1650.66
872.94	1609.70
873.11	1581.03
873.29	1728.49
873.46	1529.83
873.63	1650.66
873.81	1613.80
873.98	1681.38
874.15	1585.13
874.33	1652.71
874.50	1656.81
874.67	1796.07
874.85	1601.51
875.02	1585.13
875.19	1597.42
875.37	1693.67
875.54	1593.32
875.71	1703.91
875.88	1730.53
876.06	1626.09
876.23	1669.09
876.40	1689.57
876.58	1665.00
876.75	1712.10
876.92	1638.38
877.10	1671.14
877.27	1603.56
877.44	1669.09
877.61	1595.37
877.79	1681.38
877.96	1617.90
878.13	1644.52
878.31	1718.25
878.48	1611.75
878.65	1748.97
878.82	1583.08
879.00	1617.90
879.17	1693.67
879.34	1656.81
879.51	1656.81
879.69	1695.72
879.86	1554.41
880.03	1605.61
880.21	1656.81
880.38	1691.62
880.55	1679.33
880.72	1662.95
880.90	1660.90
881.07	1624.04
881.24	1734.63
881.41	1556.46
881.59	1624.04
881.76	1613.80
881.93	1806.31
882.10	1693.67
882.28	1601.51
882.45	1742.82
882.62	1675.24
882.79	1621.99
882.96	1546.22
883.14	1617.90
883.31	1783.78
883.48	1591.27
883.65	1587.18
883.83	1658.85
884.00	1730.53
884.17	1656.81
884.34	1658.85
884.51	1691.62
884.69	1710.05
884.86	1669.09
885.03	1753.06
885.20	1490.92
885.38	1621.99
885.55	1691.62
885.72	1667.05
885.89	1642.47
886.06	1755.11
886.24	1609.70
886.41	1544.17
886.58	1697.77
886.75	1599.46
886.92	1652.71
887.10	1656.81
887.27	1611.75
887.44	1826.79
887.61	1783.78
887.78	1699.81
887.95	1716.20
888.13	1675.24
888.30	1572.84
888.47	1646.57
888.64	1630.18
888.81	1665.00
888.99	1552.36
889.16	1658.85
889.33	1601.51
889.50	1624.04
889.67	1748.97
889.84	1677.29
890.01	1708.01
890.19	1714.15
890.36	1667.05
890.53	1619.94
890.70	1652.71
890.87	1693.67
891.04	1591.27
891.22	1638.38
891.39	1613.80
891.56	1638.38
891.73	1687.53
891.90	1613.80
892.07	1519.59
892.24	1708.01
892.42	1667.05
892.59	1576.94
892.76	1724.39
892.93	1564.65
893.10	1566.70
893.27	1654.76
893.44	1490.92
893.61	1716.20
893.79	1628.14
893.96	1570.79
894.13	1589.22
894.30	1597.42
894.47	1771.49
894.64	1718.25
894.81	1611.75
894.98	1648.61
895.15	1693.67
895.33	1640.42
895.50	1624.04
895.67	1642.47
895.84	1687.53
896.01	1658.85
896.18	1576.94
896.35	1734.63
896.52	1660.90
896.69	1597.42
896.86	1701.86
897.04	1812.45
897.21	1689.57
897.38	1638.38
897.55	1630.18
897.72	1632.23
897.89	1572.84
898.06	1673.19
898.23	1632.23
898.40	1679.33
898.57	1636.33
898.74	1646.57
898.91	1613.80
899.08	1667.05
899.26	1595.37
899.43	1730.53
899.60	1667.05
899.77	1726.44
899.94	1619.94
900.11	1677.29
900.28	1658.85
900.45	1642.47
900.62	1593.32
900.79	1689.57
900.96	1677.29
901.13	1576.94
901.30	1617.90
901.47	1527.78
901.64	1605.61
901.81	1679.33
901.98	1654.76
902.15	1699.81
902.32	1572.84
902.49	1632.23
902.66	1701.86
902.83	1671.14
903.01	1550.31
903.18	1658.85
903.35	1630.18
903.52	1656.81
903.69	1652.71
903.86	1632.23
904.03	1591.27
904.20	1681.38
904.37	1630.18
904.54	1597.42
904.71	1662.95
904.88	1675.24
905.05	1597.42
905.22	1630.18
905.39	1550.31
905.56	1550.31
905.73	1617.90
905.90	1697.77
906.07	1675.24
906.24	1728.49
906.41	1660.90
906.58	1740.77
906.75	1568.74
906.92	1636.33
907.09	1603.56
907.26	1660.90
907.43	1542.12
907.60	1667.05
907.77	1677.29
907.93	1658.85
908.10	1593.32
908.27	1679.33
908.44	1552.36
908.61	1562.60
908.78	1665.00
908.95	1734.63
909.12	1654.76
909.29	1644.52
909.46	1650.66
909.63	1734.63
909.80	1656.81
909.97	1640.42
910.14	1611.75
910.31	1562.60
910.48	1640.42
910.65	1658.85
910.82	1587.18
910.99	1693.67
911.16	1658.85
911.33	1615.85
911.50	1615.85
911.66	1642.47
911.83	1619.94
912.00	1628.14
912.17	1562.60
912.34	1605.61
912.51	1662.95
912.68	1562.60
912.85	1667.05
913.02	1646.57
913.19	1603.56
913.36	1714.15
913.53	1689.57
913.70	1624.04
913.86	1734.63
914.03	1640.42
914.20	1748.97
914.37	1650.66
914.54	1617.90
914.71	1693.67
914.88	1703.91
915.05	1609.70
915.22	1658.85
915.39	1601.51
915.55	1640.42
915.72	1593.32
915.89	1470.44
916.06	1638.38
916.23	1611.75
916.40	1658.85
916.57	1550.31
916.74	1712.10
916.91	1650.66
917.07	1552.36
917.24	1597.42
917.41	1705.96
917.58	1660.90
917.75	1574.89
917.92	1503.21
918.09	1628.14
918.26	1652.71
918.42	1630.18
918.59	1746.92
918.76	1581.03
918.93	1654.76
919.10	1607.66
919.27	1574.89
919.44	1755.11
919.60	1619.94
919.77	1624.04
919.94	1730.53
920.11	1730.53
920.28	1699.81
920.45	1572.84
920.61	1570.79
920.78	1587.18
920.95	1652.71
921.12	1583.08
921.29	1599.46
921.46	1597.42
921.62	1617.90
921.79	1681.38
921.96	1611.75
922.13	1689.57
922.30	1660.90
922.47	1646.57
922.63	1642.47
922.80	1667.05
922.97	1626.09
923.14	1495.02
923.31	1572.84
923.47	1572.84
923.64	1771.49
923.81	1632.23
923.98	1646.57
924.15	1595.37
924.32	1593.32
924.48	1720.29
924.65	1708.01
924.82	1556.46
924.99	1642.47
925.15	1533.93
925.32	1734.63
925.49	1656.81
925.66	1699.81
925.83	1656.81
925.99	1576.94
926.16	1716.20
926.33	1748.97
926.50	1568.74
926.67	1640.42
926.83	1665.00
927.00	1699.81
927.17	1617.90
927.34	1650.66
927.50	1642.47
927.67	1814.50
927.84	1701.86
928.01	1658.85
928.17	1683.43
928.34	1593.32
928.51	1587.18
928.68	1609.70
928.84	1642.47
929.01	1593.32
929.18	1523.69
929.35	1699.81
929.51	1615.85
929.68	1572.84
929.85	1558.50
930.02	1603.56
930.18	1646.57
930.35	1640.42
930.52	1679.33
930.69	1693.67
930.85	1626.09
931.02	1648.61
931.19	1607.66
931.36	1609.70
931.52	1662.95
931.69	1658.85
931.86	1642.47
932.02	1660.90
932.19	1546.22
932.36	1693.67
932.53	1632.23
932.69	1564.65
932.86	1769.44
933.03	1624.04
933.19	1525.74
933.36	1732.58
933.53	1767.40
933.70	1652.71
933.86	1693.67
934.03	1650.66
934.20	1613.80
934.36	1642.47
934.53	1558.50
934.70	1599.46
934.86	1648.61
935.03	1597.42
935.20	1564.65
935.36	1681.38
935.53	1591.27
935.70	1609.70
935.86	1671.14
936.03	1531.88
936.20	1591.27
936.36	1611.75
936.53	1665.00
936.70	1603.56
936.86	1738.73
937.03	1718.25
937.20	1562.60
937.36	1732.58
937.53	1591.27
937.70	1626.09
937.86	1615.85
938.03	1640.42
938.20	1675.24
938.36	1638.38
938.53	1671.14
938.70	1581.03
938.86	1656.81
939.03	1589.22
939.20	1605.61
939.36	1591.27
939.53	1597.42
939.70	1851.36
939.86	1619.94
940.03	1638.38
940.19	1570.79
940.36	1578.98
940.53	1648.61
940.69	1636.33
940.86	1748.97
941.03	1603.56
941.19	1568.74
941.36	1658.85
941.52	1665.00
941.69	1650.66
941.86	1617.90
942.02	1673.19
942.19	1669.09
942.35	1697.77
942.52	1646.57
942.69	1609.70
942.85	1626.09
943.02	1650.66
943.18	1634.28
943.35	1628.14
943.52	1671.14
943.68	1597.42
943.85	1656.81
944.01	1675.24
944.18	1621.99
944.35	1624.04
944.51	1609.70
944.68	1611.75
944.84	1621.99
945.01	1587.18
945.17	1689.57
945.34	1695.72
945.51	1679.33
945.67	1583.08
945.84	1644.52
946.00	1591.27
946.17	1665.00
946.33	1593.32
946.50	1683.43
946.67	1568.74
946.83	1624.04
947.00	1814.50
947.16	1665.00
947.33	1675.24
947.49	1632.23
947.66	1556.46
947.82	1714.15
947.99	1560.55
948.16	1734.63
948.32	1658.85
948.49	1662.95
948.65	1712.10
948.82	1634.28
948.98	1671.14
949.15	1525.74
949.31	1675.24
949.48	1564.65
949.64	1601.51
949.81	1708.01
949.97	1564.65
950.14	1617.90
950.30	1581.03
950.47	1658.85
950.63	1634.28
950.80	1736.68
950.96	1632.23
951.13	1615.85
951.30	1589.22
951.46	1593.32
951.63	1642.47
951.79	1687.53
951.96	1658.85
952.12	1615.85
952.29	1648.61
952.45	1615.85
952.62	1619.94
952.78	1642.47
952.94	1595.37
953.11	1591.27
953.27	1529.83
953.44	1675.24
953.60	1583.08
953.77	1681.38
953.93	1638.38
954.10	1718.25
954.26	1640.42
954.43	1662.95
954.59	1675.24
954.76	1769.44
954.92	1667.05
955.09	1673.19
955.25	1562.60
955.42	1499.11
955.58	1667.05
955.75	1652.71
955.91	1574.89
956.07	1648.61
956.24	1695.72
956.40	1673.19
956.57	1626.09
956.73	1560.55
956.90	1667.05
957.06	1611.75
957.23	1558.50
957.39	1548.26
957.56	1591.27
957.72	1486.83
957.88	1671.14
958.05	1650.66
958.21	1665.00
958.38	1685.48
958.54	1656.81
958.71	1701.86
958.87	1658.85
959.03	1560.55
959.20	1712.10
959.36	1642.47
959.53	1654.76
959.69	1507.30
959.85	1697.77
960.02	1626.09
960.18	1630.18
960.35	1593.32
960.51	1693.67
960.68	1617.90
960.84	1660.90
961.00	1544.17
961.17	1609.70
961.33	1650.66
961.50	1615.85
961.66	1673.19
961.82	1558.50
961.99	1687.53
962.15	1673.19
962.31	1617.90
962.48	1667.05
962.64	1585.13
962.81	1636.33
962.97	1613.80
963.13	1634.28
963.30	1607.66
963.46	1591.27
963.62	1581.03
963.79	1556.46
963.95	1601.51
964.12	1697.77
964.28	1624.04
964.44	1601.51
964.61	1705.96
964.77	1621.99
964.93	1736.68
965.10	1574.89
965.26	1611.75
965.42	1677.29
965.59	1585.13
965.75	1581.03
965.92	1636.33
966.08	1656.81
966.24	1662.95
966.41	1587.18
966.57	1650.66
966.73	1605.61
966.90	1644.52
967.06	1644.52
967.22	1630.18
967.39	1601.51
967.55	1611.75
967.71	1640.42
967.88	1593.32
968.04	1589.22
968.20	1525.74
968.37	1636.33
968.53	1556.46
968.69	1581.03
968.85	1619.94
969.02	1644.52
969.18	1691.62
969.34	1611.75
969.51	1693.67
969.67	1677.29
969.83	1538.02
970.00	1789.92
970.16	1662.95
970.32	1619.94
970.48	1712.10
970.65	1632.23
970.81	1593.32
970.97	1691.62
971.14	1509.35
971.30	1695.72
971.46	1667.05
971.63	1621.99
971.79	1691.62
971.95	1652.71
972.11	1599.46
972.28	1642.47
972.44	1632.23
972.60	1587.18
972.76	1603.56
972.93	1529.83
973.09	1699.81
973.25	1646.57
973.42	1712.10
973.58	1718.25
973.74	1576.94
973.90	1716.20
974.07	1634.28
974.23	1628.14
974.39	1658.85
974.55	1626.09
974.72	1609.70
974.88	1552.36
975.04	1634.28
975.20	1529.83
975.37	1638.38
975.53	1632.23
975.69	1675.24
975.85	1556.46
976.01	1613.80
976.18	1624.04
976.34	1570.79
976.50	1667.05
976.66	1701.86
976.83	1634.28
976.99	1609.70
977.15	1634.28
977.31	1581.03
977.47	1726.44
977.64	1609.70
977.80	1585.13
977.96	1634.28
978.12	1640.42
978.29	1642.47
978.45	1597.42
978.61	1574.89
978.77	1667.05
978.93	1501.16
979.10	1632.23
979.26	1589.22
979.42	1572.84
979.58	1533.93
979.74	1585.13
979.91	1673.19
980.07	1638.38
980.23	1578.98
980.39	1542.12
980.55	1656.81
980.71	1578.98
980.88	1556.46
981.04	1646.57
981.20	1667.05
981.36	1671.14
981.52	1624.04
981.68	1607.66
981.85	1619.94
982.01	1673.19
982.17	1568.74
982.33	1660.90
982.49	1650.66
982.65	1652.71
982.82	1626.09
982.98	1607.66
983.14	1591.27
983.30	1722.34
983.46	1724.39
983.62	1716.20
983.79	1538.02
983.95	1699.81
984.11	1540.07
984.27	1611.75
984.43	1581.03
984.59	1560.55
984.75	1679.33
984.91	1574.89
985.08	1621.99
985.24	1591.27
985.40	1552.36
985.56	1656.81
985.72	1716.20
985.88	1724.39
986.04	1607.66
986.20	1599.46
986.37	1585.13
986.53	1581.03
986.69	1695.72
986.85	1601.51
987.01	1658.85
987.17	1683.43
987.33	1605.61
987.49	1591.27
987.65	1765.35
987.82	1613.80
987.98	1519.59
988.14	1535.98
988.30	1679.33
988.46	1615.85
988.62	1591.27
988.78	1587.18
988.94	1669.09
989.10	1511.40
989.26	1626.09
989.42	1587.18
989.59	1634.28
989.75	1636.33
989.91	1703.91
990.07	1566.70
990.23	1646.57
990.39	1609.70
990.55	1642.47
990.71	1638.38
990.87	1619.94
991.03	1634.28
991.19	1574.89
991.35	1646.57
991.51	1595.37
991.67	1667.05
991.83	1609.70
992.00	1722.34
992.16	1617.90
992.32	1656.81
992.48	1624.04
992.64	1628.14
992.80	1683.43
992.96	1626.09
993.12	1634.28
993.28	1591.27
993.44	1585.13
993.60	1683.43
993.76	1656.81
993.92	1630.18
994.08	1619.94
994.24	1576.94
994.40	1642.47
994.56	1656.81
994.72	1617.90
994.88	1624.04
995.04	1562.60
995.20	1624.04
995.36	1581.03
995.52	1665.00
995.68	1609.70
995.84	1585.13
996.00	1712.10
996.16	1578.98
996.32	1566.70
996.48	1560.55
996.64	1724.39
996.80	1568.74
996.96	1665.00
997.12	1578.98
997.28	1585.13
997.44	1550.31
997.60	1581.03
997.76	1605.61
997.92	1722.34
998.08	1677.29
998.24	1550.31
998.40	1673.19
998.56	1665.00
998.72	1603.56
998.88	1574.89
999.04	1572.84
999.20	1589.22
999.36	1554.41
999.52	1724.39
999.68	1673.19
999.84	1638.38
1000.00	1624.04
1000.16	1671.14
1000.32	1560.55
1000.48	1722.34
1000.64	1589.22
1000.80	1562.60
1000.95	1572.84
1001.11	1634.28
1001.27	1540.07
1001.43	1658.85
1001.59	1585.13
1001.75	1591.27
1001.91	1574.89
1002.07	1578.98
1002.23	1572.84
1002.39	1667.05
1002.55	1624.04
1002.71	1621.99
1002.87	1576.94
1003.03	1519.59
1003.19	1556.46
1003.34	1744.87
1003.50	1630.18
1003.66	1646.57
1003.82	1701.86
1003.98	1581.03
1004.14	1591.27
1004.30	1687.53
1004.46	1540.07
1004.62	1607.66
1004.78	1533.93
1004.94	1667.05
1005.09	1679.33
1005.25	1648.61
1005.41	1589.22
1005.57	1550.31
1005.73	1593.32
1005.89	1570.79
1006.05	1642.47
1006.21	1611.75
1006.37	1531.88
1006.52	1568.74
1006.68	1482.73
1006.84	1748.97
1007.00	1548.26
1007.16	1613.80
1007.32	1591.27
1007.48	1581.03
1007.64	1669.09
1007.79	1640.42
1007.95	1554.41
1008.11	1740.77
1008.27	1603.56
1008.43	1669.09
1008.59	1605.61
1008.75	1654.76
1008.91	1638.38
1009.06	1628.14
1009.22	1619.94
1009.38	1621.99
1009.54	1658.85
1009.70	1654.76
1009.86	1634.28
1010.01	1683.43
1010.17	1560.55
1010.33	1613.80
1010.49	1593.32
1010.65	1703.91
1010.81	1615.85
1010.96	1538.02
1011.12	1593.32
1011.28	1619.94
1011.44	1662.95
1011.60	1593.32
1011.76	1558.50
1011.91	1724.39
1012.07	1558.50
1012.23	1515.50
1012.39	1513.45
1012.55	1605.61
1012.71	1581.03
1012.86	1593.32
1013.02	1576.94
1013.18	1519.59
1013.34	1640.42
1013.50	1581.03
1013.65	1687.53
1013.81	1574.89
1013.97	1650.66
1014.13	1681.38
1014.29	1660.90
1014.44	1734.63
1014.60	1593.32
1014.76	1601.51
1014.92	1560.55
1015.07	1632.23
1015.23	1710.05
1015.39	1611.75
1015.55	1585.13
1015.71	1609.70
1015.86	1607.66
1016.02	1589.22
1016.18	1511.40
1016.34	1617.90
1016.49	1613.80
1016.65	1611.75
1016.81	1609.70
1016.97	1669.09
1017.12	1578.98
1017.28	1605.61
1017.44	1585.13
1017.60	1572.84
1017.75	1603.56
1017.91	1578.98
1018.07	1626.09
1018.23	1636.33
1018.38	1609.70
1018.54	1615.85
1018.70	1662.95
1018.86	1583.08
1019.01	1675.24
1019.17	1552.36
1019.33	1640.42
1019.49	1708.01
1019.64	1597.42
1019.80	1624.04
1019.96	1708.01
1020.12	1648.61
1020.27	1527.78
1020.43	1558.50
1020.59	1642.47
1020.74	1613.80
1020.90	1630.18
1021.06	1640.42
1021.22	1603.56
1021.37	1581.03
1021.53	1535.98
1021.69	1585.13
1021.84	1605.61
1022.00	1607.66
1022.16	1634.28
1022.31	1630.18
1022.47	1644.52
1022.63	1665.00
1022.79	1581.03
1022.94	1535.98
1023.10	1718.25
1023.26	1601.51
1023.41	1583.08
1023.57	1630.18
1023.73	1630.18
1023.88	1607.66
1024.04	1535.98
1024.20	1632.23
1024.35	1699.81
1024.51	1597.42
1024.67	1560.55
1024.82	1650.66
1024.98	1513.45
1025.14	1660.90
1025.29	1560.55
1025.45	1630.18
1025.61	1574.89
1025.76	1566.70
1025.92	1642.47
1026.08	1607.66
1026.23	1636.33
1026.39	1683.43
1026.55	1634.28
1026.70	1636.33
1026.86	1593.32
1027.02	1634.28
1027.17	1628.14
1027.33	1742.82
1027.48	1615.85
1027.64	1562.60
1027.80	1488.87
1027.95	1652.71
1028.11	1560.55
1028.27	1558.50
1028.42	1660.90
1028.58	1652.71
1028.73	1578.98
1028.89	1517.54
1029.05	1777.64
1029.20	1601.51
>>>>>End Processed Spectral Data<<<<<
