SpectraSuite Data File
++++++++++++++++++++++++++++++++++++
Date: Fri Jun 02 14:57:16 CEST 2017
User: INFO_000
Dark Spectrum Present: No
Reference Spectrum Present: No
Number of Sampled Component Spectra: 1
Spectrometers: USB4H00879
Integration Time (usec): 80000 (USB4H00879)
Spectra Averaged: 1 (USB4H00879)
Boxcar Smoothing: 0 (USB4H00879)
Correct for Electrical Dark: No (USB4H00879)
Strobe/Lamp Enabled: No (USB4H00879)
Correct for Detector Non-linearity: No (USB4H00879)
Correct for Stray Light: No (USB4H00879)
Number of Pixels in Processed Spectrum: 3648
>>>>>Begin Processed Spectral Data<<<<<
345.13	1259.50
345.34	1259.50
345.56	1259.50
345.78	1279.98
345.99	1310.70
346.21	1675.24
346.42	1691.62
346.64	1644.52
346.86	1757.16
347.07	1677.29
347.29	1705.96
347.50	1671.14
347.72	1726.44
347.94	1781.73
348.15	1685.48
348.37	1671.14
348.59	1679.33
348.80	1689.57
349.02	1691.62
349.23	1669.09
349.45	1753.06
349.67	1748.97
349.88	1619.94
350.10	1873.89
350.31	1736.68
350.53	1648.61
350.75	1847.27
350.96	1636.33
351.18	1777.64
351.39	1748.97
351.61	1597.42
351.82	1763.30
352.04	1779.68
352.26	1748.97
352.47	1716.20
352.69	1724.39
352.90	1619.94
353.12	1796.07
353.34	1732.58
353.55	1798.12
353.77	1730.53
353.98	1665.00
354.20	1689.57
354.41	1751.01
354.63	1705.96
354.85	1847.27
355.06	1794.02
355.28	1644.52
355.49	1724.39
355.71	1740.77
355.92	1673.19
356.14	1763.30
356.35	1695.72
356.57	1615.85
356.79	1617.90
357.00	1691.62
357.22	1773.54
357.43	1656.81
357.65	1740.77
357.86	1687.53
358.08	1687.53
358.29	1744.87
358.51	1748.97
358.72	1730.53
358.94	1677.29
359.16	1617.90
359.37	1724.39
359.59	1794.02
359.80	1773.54
360.02	1693.67
360.23	1753.06
360.45	1769.44
360.66	1603.56
360.88	1634.28
361.09	1632.23
361.31	1730.53
361.52	1689.57
361.74	1771.49
361.95	1810.40
362.17	1662.95
362.38	1757.16
362.60	1771.49
362.81	1712.10
363.03	1683.43
363.24	1689.57
363.46	1808.36
363.67	1798.12
363.89	1720.29
364.10	1699.81
364.32	1726.44
364.53	1783.78
364.75	1603.56
364.96	1708.01
365.18	1695.72
365.39	1740.77
365.61	1621.99
365.82	1734.63
366.04	1654.76
366.25	1726.44
366.47	1699.81
366.68	1742.82
366.90	1615.85
367.11	1751.01
367.33	1906.66
367.54	1777.64
367.76	1726.44
367.97	1710.05
368.19	1710.05
368.40	1789.92
368.62	1667.05
368.83	1675.24
369.05	1767.40
369.26	1662.95
369.48	1667.05
369.69	1667.05
369.91	1771.49
370.12	1693.67
370.33	1814.50
370.55	1667.05
370.76	1712.10
370.98	1746.92
371.19	1650.66
371.41	1691.62
371.62	1675.24
371.84	1583.08
372.05	1787.88
372.27	1740.77
372.48	1691.62
372.69	1746.92
372.91	1820.64
373.12	1828.84
373.34	1708.01
373.55	1638.38
373.77	1765.35
373.98	1646.57
374.20	1712.10
374.41	1851.36
374.62	1740.77
374.84	1787.88
375.05	1683.43
375.27	1697.77
375.48	1794.02
375.70	1665.00
375.91	1785.83
376.12	1830.88
376.34	1677.29
376.55	1744.87
376.77	1722.34
376.98	1669.09
377.19	1718.25
377.41	1681.38
377.62	1720.29
377.84	1757.16
378.05	1804.26
378.27	1693.67
378.48	1740.77
378.69	1796.07
378.91	1710.05
379.12	1798.12
379.34	1673.19
379.55	1755.11
379.76	1697.77
379.98	1712.10
380.19	1755.11
380.41	1773.54
380.62	1757.16
380.83	1746.92
381.05	1650.66
381.26	1804.26
381.47	1634.28
381.69	1710.05
381.90	1773.54
382.12	1685.48
382.33	1673.19
382.54	1708.01
382.76	1710.05
382.97	1693.67
383.19	1621.99
383.40	1757.16
383.61	1687.53
383.83	1589.22
384.04	1652.71
384.25	1697.77
384.47	1732.58
384.68	1763.30
384.89	1630.18
385.11	1718.25
385.32	1658.85
385.54	1621.99
385.75	1656.81
385.96	1708.01
386.18	1783.78
386.39	1712.10
386.60	1691.62
386.82	1720.29
387.03	1718.25
387.24	1763.30
387.46	1730.53
387.67	1734.63
387.88	1779.68
388.10	1603.56
388.31	1757.16
388.52	1757.16
388.74	1705.96
388.95	1712.10
389.16	1740.77
389.38	1574.89
389.59	1804.26
389.80	1722.34
390.02	1708.01
390.23	1744.87
390.44	1613.80
390.66	1673.19
390.87	1609.70
391.08	1769.44
391.30	1789.92
391.51	1767.40
391.72	1681.38
391.94	1812.45
392.15	1689.57
392.36	1677.29
392.58	1736.68
392.79	1679.33
393.00	1675.24
393.22	1791.97
393.43	1763.30
393.64	1789.92
393.85	1755.11
394.07	1658.85
394.28	1734.63
394.49	1720.29
394.71	1818.60
394.92	1781.73
395.13	1675.24
395.35	1642.47
395.56	1626.09
395.77	1695.72
395.98	1646.57
396.20	1673.19
396.41	1738.73
396.62	1822.69
396.84	1626.09
397.05	1695.72
397.26	1748.97
397.47	1748.97
397.69	1683.43
397.90	1904.61
398.11	1789.92
398.32	1683.43
398.54	1736.68
398.75	1718.25
398.96	1716.20
399.18	1824.74
399.39	1710.05
399.60	1759.21
399.81	1730.53
400.03	1662.95
400.24	1906.66
400.45	1773.54
400.66	1671.14
400.88	1583.08
401.09	1882.08
401.30	1667.05
401.51	1761.25
401.73	1730.53
401.94	1863.65
402.15	1656.81
402.36	1751.01
402.58	1714.15
402.79	1777.64
403.00	1703.91
403.21	1712.10
403.43	1667.05
403.64	1726.44
403.85	1613.80
404.06	1877.99
404.27	1587.18
404.49	1732.58
404.70	1675.24
404.91	1769.44
405.12	1759.21
405.34	1712.10
405.55	1898.47
405.76	1597.42
405.97	1755.11
406.19	1777.64
406.40	1601.51
406.61	1761.25
406.82	1665.00
407.03	1726.44
407.25	1662.95
407.46	1791.97
407.67	1746.92
407.88	1755.11
408.09	1738.73
408.31	1638.38
408.52	1705.96
408.73	1636.33
408.94	1576.94
409.15	1708.01
409.37	1722.34
409.58	1720.29
409.79	1712.10
410.00	1845.22
410.21	1675.24
410.43	1660.90
410.64	1640.42
410.85	1738.73
411.06	1746.92
411.27	1742.82
411.48	1785.83
411.70	1640.42
411.91	1716.20
412.12	1777.64
412.33	1751.01
412.54	1619.94
412.76	1742.82
412.97	1755.11
413.18	1603.56
413.39	1753.06
413.60	1763.30
413.81	1755.11
414.03	1726.44
414.24	1660.90
414.45	1777.64
414.66	1572.84
414.87	1656.81
415.08	1699.81
415.30	1722.34
415.51	1744.87
415.72	1687.53
415.93	1720.29
416.14	1763.30
416.35	1720.29
416.56	1740.77
416.78	1646.57
416.99	1757.16
417.20	1789.92
417.41	1701.86
417.62	1734.63
417.83	1705.96
418.04	1642.47
418.26	1771.49
418.47	1644.52
418.68	1695.72
418.89	1816.55
419.10	1896.42
419.31	1753.06
419.52	1699.81
419.73	1773.54
419.95	1714.15
420.16	1673.19
420.37	1675.24
420.58	1789.92
420.79	1626.09
421.00	1687.53
421.21	1681.38
421.42	1667.05
421.63	1697.77
421.85	1732.58
422.06	1759.21
422.27	1697.77
422.48	1673.19
422.69	1697.77
422.90	1617.90
423.11	1673.19
423.32	1796.07
423.53	1783.78
423.75	1712.10
423.96	1757.16
424.17	1740.77
424.38	1853.41
424.59	1716.20
424.80	1701.86
425.01	1830.88
425.22	1591.27
425.43	1769.44
425.64	1783.78
425.85	1757.16
426.06	1724.39
426.28	1748.97
426.49	1673.19
426.70	1638.38
426.91	1751.01
427.12	1798.12
427.33	1716.20
427.54	1716.20
427.75	1621.99
427.96	1761.25
428.17	1765.35
428.38	1654.76
428.59	1816.55
428.80	1728.49
429.01	1630.18
429.23	1636.33
429.44	1705.96
429.65	1699.81
429.86	1726.44
430.07	1681.38
430.28	1683.43
430.49	1736.68
430.70	1771.49
430.91	1841.12
431.12	1609.70
431.33	1662.95
431.54	1751.01
431.75	1703.91
431.96	1687.53
432.17	1728.49
432.38	1781.73
432.59	1734.63
432.80	1796.07
433.01	1759.21
433.22	1691.62
433.43	1771.49
433.64	1751.01
433.85	1765.35
434.06	1650.66
434.27	1689.57
434.49	1777.64
434.70	1779.68
434.91	1728.49
435.12	1689.57
435.33	1693.67
435.54	1724.39
435.75	1652.71
435.96	1740.77
436.17	1648.61
436.38	1740.77
436.59	1658.85
436.80	1621.99
437.01	1787.88
437.22	1789.92
437.43	1773.54
437.64	1669.09
437.85	1777.64
438.06	1685.48
438.27	1646.57
438.48	1687.53
438.69	1705.96
438.90	1689.57
439.11	1626.09
439.32	1845.22
439.53	1564.65
439.74	1603.56
439.95	1658.85
440.16	1626.09
440.37	1720.29
440.57	1597.42
440.78	1634.28
440.99	1755.11
441.20	1673.19
441.41	1738.73
441.62	1607.66
441.83	1624.04
442.04	1669.09
442.25	1681.38
442.46	1646.57
442.67	1572.84
442.88	1744.87
443.09	1667.05
443.30	1654.76
443.51	1669.09
443.72	1716.20
443.93	1660.90
444.14	1720.29
444.35	1687.53
444.56	1611.75
444.77	1634.28
444.98	1591.27
445.19	1683.43
445.40	1644.52
445.61	1679.33
445.81	1658.85
446.02	1751.01
446.23	1708.01
446.44	1644.52
446.65	1652.71
446.86	1705.96
447.07	1826.79
447.28	1693.67
447.49	1689.57
447.70	1679.33
447.91	1708.01
448.12	1697.77
448.33	1699.81
448.54	1695.72
448.74	1697.77
448.95	1724.39
449.16	1746.92
449.37	1740.77
449.58	1759.21
449.79	1669.09
450.00	1660.90
450.21	1701.86
450.42	1710.05
450.63	1730.53
450.84	1662.95
451.05	1691.62
451.25	1638.38
451.46	1681.38
451.67	1798.12
451.88	1755.11
452.09	1683.43
452.30	1716.20
452.51	1613.80
452.72	1826.79
452.93	1779.68
453.13	1646.57
453.34	1689.57
453.55	1677.29
453.76	1691.62
453.97	1628.14
454.18	1552.36
454.39	1734.63
454.60	1685.48
454.81	1703.91
455.01	1648.61
455.22	1601.51
455.43	1669.09
455.64	1695.72
455.85	1755.11
456.06	1708.01
456.27	1722.34
456.48	1685.48
456.68	1763.30
456.89	1673.19
457.10	1740.77
457.31	1753.06
457.52	1724.39
457.73	1679.33
457.94	1765.35
458.14	1630.18
458.35	1656.81
458.56	1683.43
458.77	1697.77
458.98	1640.42
459.19	1685.48
459.39	1730.53
459.60	1650.66
459.81	1656.81
460.02	1734.63
460.23	1660.90
460.44	1701.86
460.65	1691.62
460.85	1675.24
461.06	1658.85
461.27	1699.81
461.48	1679.33
461.69	1699.81
461.89	1607.66
462.10	1667.05
462.31	1574.89
462.52	1626.09
462.73	1691.62
462.94	1675.24
463.14	1716.20
463.35	1716.20
463.56	1808.36
463.77	1755.11
463.98	1656.81
464.18	1624.04
464.39	1820.64
464.60	1720.29
464.81	1611.75
465.02	1685.48
465.23	1748.97
465.43	1621.99
465.64	1611.75
465.85	1654.76
466.06	1677.29
466.27	1671.14
466.47	1691.62
466.68	1757.16
466.89	1652.71
467.10	1611.75
467.30	1617.90
467.51	1744.87
467.72	1810.40
467.93	1603.56
468.14	1677.29
468.34	1751.01
468.55	1667.05
468.76	1791.97
468.97	1648.61
469.17	1732.58
469.38	1773.54
469.59	1660.90
469.80	1716.20
470.01	1712.10
470.21	1673.19
470.42	1656.81
470.63	1708.01
470.84	1822.69
471.04	1693.67
471.25	1812.45
471.46	1722.34
471.67	1824.74
471.87	1621.99
472.08	1740.77
472.29	1654.76
472.50	1757.16
472.70	1679.33
472.91	1591.27
473.12	1646.57
473.33	1720.29
473.53	1736.68
473.74	1669.09
473.95	1681.38
474.16	1630.18
474.36	1703.91
474.57	1765.35
474.78	1708.01
474.99	1791.97
475.19	1701.86
475.40	1769.44
475.61	1660.90
475.81	1748.97
476.02	1683.43
476.23	1748.97
476.44	1581.03
476.64	1681.38
476.85	1708.01
477.06	1732.58
477.27	1691.62
477.47	1742.82
477.68	1810.40
477.89	1697.77
478.09	1677.29
478.30	1705.96
478.51	1619.94
478.71	1621.99
478.92	1753.06
479.13	1732.58
479.34	1697.77
479.54	1685.48
479.75	1701.86
479.96	1712.10
480.16	1681.38
480.37	1681.38
480.58	1691.62
480.78	1779.68
480.99	1652.71
481.20	1712.10
481.41	1724.39
481.61	1771.49
481.82	1802.21
482.03	1691.62
482.23	1689.57
482.44	1730.53
482.65	1849.32
482.85	1740.77
483.06	1665.00
483.27	1728.49
483.47	1630.18
483.68	1630.18
483.89	1679.33
484.09	1720.29
484.30	1755.11
484.51	1751.01
484.71	1634.28
484.92	1572.84
485.13	1710.05
485.33	1677.29
485.54	1609.70
485.75	1724.39
485.95	1738.73
486.16	1701.86
486.37	1716.20
486.57	1589.22
486.78	1652.71
486.98	1740.77
487.19	1636.33
487.40	1718.25
487.60	1687.53
487.81	1669.09
488.02	1644.52
488.22	1628.14
488.43	1755.11
488.64	1640.42
488.84	1613.80
489.05	1775.59
489.25	1628.14
489.46	1689.57
489.67	1619.94
489.87	1775.59
490.08	1708.01
490.29	1626.09
490.49	1820.64
490.70	1769.44
490.90	1669.09
491.11	1671.14
491.32	1742.82
491.52	1642.47
491.73	1687.53
491.94	1607.66
492.14	1621.99
492.35	1605.61
492.55	1740.77
492.76	1685.48
492.97	1652.71
493.17	1714.15
493.38	1716.20
493.58	1808.36
493.79	1751.01
494.00	1626.09
494.20	1656.81
494.41	1714.15
494.61	1824.74
494.82	1685.48
495.02	1605.61
495.23	1734.63
495.44	1718.25
495.64	1730.53
495.85	1691.62
496.05	1724.39
496.26	1769.44
496.47	1761.25
496.67	1673.19
496.88	1748.97
497.08	1699.81
497.29	1683.43
497.49	1804.26
497.70	1699.81
497.91	1662.95
498.11	1787.88
498.32	1683.43
498.52	1759.21
498.73	1724.39
498.93	1693.67
499.14	1726.44
499.34	1861.60
499.55	1775.59
499.76	1650.66
499.96	1722.34
500.17	1757.16
500.37	1703.91
500.58	1722.34
500.78	1648.61
500.99	1630.18
501.19	1662.95
501.40	1830.88
501.60	1535.98
501.81	1703.91
502.02	1679.33
502.22	1683.43
502.43	1683.43
502.63	1779.68
502.84	1757.16
503.04	1726.44
503.25	1785.83
503.45	1699.81
503.66	1609.70
503.86	1738.73
504.07	1695.72
504.27	1615.85
504.48	1691.62
504.68	1648.61
504.89	1781.73
505.09	1689.57
505.30	1699.81
505.50	1751.01
505.71	1691.62
505.91	1794.02
506.12	1765.35
506.32	1634.28
506.53	1607.66
506.73	1710.05
506.94	1683.43
507.14	1724.39
507.35	1650.66
507.55	1695.72
507.76	1738.73
507.96	1691.62
508.17	1740.77
508.37	1611.75
508.58	1748.97
508.78	1656.81
508.99	1861.60
509.19	1679.33
509.40	1728.49
509.60	1732.58
509.81	1818.60
510.01	1701.86
510.22	1724.39
510.42	1714.15
510.63	1755.11
510.83	1685.48
511.04	1630.18
511.24	1775.59
511.44	1712.10
511.65	1730.53
511.85	1761.25
512.06	1705.96
512.26	1638.38
512.47	1775.59
512.67	1662.95
512.88	1775.59
513.08	1581.03
513.29	1802.21
513.49	1652.71
513.69	1677.29
513.90	1681.38
514.10	1824.74
514.31	1701.86
514.51	1677.29
514.72	1748.97
514.92	1732.58
515.13	1578.98
515.33	1705.96
515.53	1628.14
515.74	1781.73
515.94	1712.10
516.15	1755.11
516.35	1568.74
516.56	1632.23
516.76	1609.70
516.96	1630.18
517.17	1816.55
517.37	1738.73
517.58	1628.14
517.78	1693.67
517.99	1765.35
518.19	1900.52
518.39	1726.44
518.60	1703.91
518.80	1722.34
519.01	1800.16
519.21	1646.57
519.41	1755.11
519.62	1654.76
519.82	1736.68
520.03	1724.39
520.23	1718.25
520.43	1529.83
520.64	1732.58
520.84	1740.77
521.05	1710.05
521.25	1716.20
521.45	1757.16
521.66	1728.49
521.86	1753.06
522.07	1716.20
522.27	1677.29
522.47	1640.42
522.68	1738.73
522.88	1748.97
523.08	1761.25
523.29	1630.18
523.49	1667.05
523.70	1708.01
523.90	1679.33
524.10	1726.44
524.31	1611.75
524.51	1613.80
524.71	1736.68
524.92	1755.11
525.12	1642.47
525.33	1757.16
525.53	1720.29
525.73	1789.92
525.94	1640.42
526.14	1691.62
526.34	1683.43
526.55	1667.05
526.75	1691.62
526.95	1832.93
527.16	1650.66
527.36	1712.10
527.56	1744.87
527.77	1611.75
527.97	1720.29
528.17	1757.16
528.38	1722.34
528.58	1697.77
528.78	1703.91
528.99	1665.00
529.19	1679.33
529.39	1613.80
529.60	1552.36
529.80	1685.48
530.00	1665.00
530.21	1757.16
530.41	1679.33
530.61	1804.26
530.82	1703.91
531.02	1730.53
531.22	1687.53
531.43	1669.09
531.63	1708.01
531.83	1791.97
532.04	1757.16
532.24	1540.07
532.44	1613.80
532.64	1818.60
532.85	1642.47
533.05	1656.81
533.25	1628.14
533.46	1720.29
533.66	1691.62
533.86	1650.66
534.07	1789.92
534.27	1671.14
534.47	1716.20
534.67	1710.05
534.88	1683.43
535.08	1794.02
535.28	1689.57
535.49	1689.57
535.69	1787.88
535.89	1851.36
536.09	1740.77
536.30	1710.05
536.50	1613.80
536.70	1736.68
536.91	1646.57
537.11	1751.01
537.31	1738.73
537.51	1675.24
537.72	1753.06
537.92	1665.00
538.12	1751.01
538.32	1777.64
538.53	1716.20
538.73	1667.05
538.93	1687.53
539.13	1742.82
539.34	1742.82
539.54	1695.72
539.74	1800.16
539.94	1693.67
540.15	1785.83
540.35	1667.05
540.55	1691.62
540.75	1656.81
540.96	1671.14
541.16	1708.01
541.36	1705.96
541.56	1775.59
541.77	1824.74
541.97	1691.62
542.17	1621.99
542.37	1806.31
542.58	1746.92
542.78	1779.68
542.98	1732.58
543.18	1652.71
543.38	1779.68
543.59	1726.44
543.79	1634.28
543.99	1646.57
544.19	1574.89
544.40	1748.97
544.60	1736.68
544.80	1701.86
545.00	1632.23
545.20	1691.62
545.41	1626.09
545.61	1548.26
545.81	1648.61
546.01	1775.59
546.21	1650.66
546.42	1753.06
546.62	1789.92
546.82	1683.43
547.02	1695.72
547.22	1689.57
547.43	1771.49
547.63	1736.68
547.83	1644.52
548.03	1671.14
548.23	1765.35
548.44	1630.18
548.64	1634.28
548.84	1693.67
549.04	1701.86
549.24	1783.78
549.45	1970.15
549.65	1716.20
549.85	1712.10
550.05	1734.63
550.25	1593.32
550.45	1773.54
550.66	1763.30
550.86	1646.57
551.06	1767.40
551.26	1665.00
551.46	1708.01
551.66	1751.01
551.87	1732.58
552.07	1609.70
552.27	1710.05
552.47	1675.24
552.67	1665.00
552.87	1753.06
553.07	1748.97
553.28	1789.92
553.48	1697.77
553.68	1568.74
553.88	1714.15
554.08	1691.62
554.28	1656.81
554.48	1636.33
554.69	1722.34
554.89	1642.47
555.09	1634.28
555.29	1626.09
555.49	1701.86
555.69	1736.68
555.89	1679.33
556.10	1660.90
556.30	1679.33
556.50	1687.53
556.70	1679.33
556.90	1699.81
557.10	1757.16
557.30	1755.11
557.50	1634.28
557.70	1650.66
557.91	1679.33
558.11	1621.99
558.31	1767.40
558.51	1660.90
558.71	1753.06
558.91	1740.77
559.11	1624.04
559.31	1683.43
559.51	1689.57
559.72	1771.49
559.92	1621.99
560.12	1681.38
560.32	1798.12
560.52	1794.02
560.72	1720.29
560.92	1763.30
561.12	1740.77
561.32	1720.29
561.52	1714.15
561.72	1871.84
561.93	1783.78
562.13	1710.05
562.33	1636.33
562.53	1716.20
562.73	1693.67
562.93	1697.77
563.13	1787.88
563.33	1806.31
563.53	1708.01
563.73	1736.68
563.93	1720.29
564.13	1791.97
564.33	1728.49
564.53	1722.34
564.74	1705.96
564.94	1712.10
565.14	1779.68
565.34	1701.86
565.54	1736.68
565.74	1619.94
565.94	1720.29
566.14	1662.95
566.34	1652.71
566.54	1720.29
566.74	1695.72
566.94	1738.73
567.14	1712.10
567.34	1628.14
567.54	1660.90
567.74	1734.63
567.94	1691.62
568.14	1617.90
568.34	1886.18
568.54	1722.34
568.74	1665.00
568.94	1724.39
569.14	1765.35
569.34	1708.01
569.54	1634.28
569.75	1751.01
569.95	1712.10
570.15	1724.39
570.35	1683.43
570.55	1679.33
570.75	1777.64
570.95	1710.05
571.15	1810.40
571.35	1699.81
571.55	1640.42
571.75	1671.14
571.95	1738.73
572.15	1708.01
572.35	1705.96
572.55	1746.92
572.75	1695.72
572.95	1585.13
573.15	1714.15
573.35	1742.82
573.55	1777.64
573.75	1648.61
573.95	1806.31
574.15	1683.43
574.35	1691.62
574.55	1710.05
574.75	1691.62
574.95	1703.91
575.15	1703.91
575.34	1644.52
575.54	1744.87
575.74	1695.72
575.94	1738.73
576.14	1636.33
576.34	1705.96
576.54	1720.29
576.74	1742.82
576.94	1607.66
577.14	1669.09
577.34	1849.32
577.54	1712.10
577.74	1617.90
577.94	1681.38
578.14	1671.14
578.34	1761.25
578.54	1673.19
578.74	1714.15
578.94	1716.20
579.14	1787.88
579.34	1671.14
579.54	1687.53
579.74	1728.49
579.94	1644.52
580.13	1800.16
580.33	1624.04
580.53	1671.14
580.73	1624.04
580.93	1781.73
581.13	1701.86
581.33	1634.28
581.53	1705.96
581.73	1753.06
581.93	1656.81
582.13	1720.29
582.33	1681.38
582.53	1662.95
582.73	1691.62
582.92	1654.76
583.12	1789.92
583.32	1724.39
583.52	1683.43
583.72	1763.30
583.92	1734.63
584.12	1748.97
584.32	1675.24
584.52	1581.03
584.72	1679.33
584.92	1718.25
585.11	1697.77
585.31	1699.81
585.51	1634.28
585.71	1763.30
585.91	1794.02
586.11	1679.33
586.31	1679.33
586.51	1712.10
586.71	1705.96
586.91	1738.73
587.10	1806.31
587.30	1798.12
587.50	1757.16
587.70	1705.96
587.90	1658.85
588.10	1695.72
588.30	1662.95
588.50	1652.71
588.69	1718.25
588.89	1650.66
589.09	1816.55
589.29	1626.09
589.49	1585.13
589.69	1679.33
589.89	1757.16
590.08	1703.91
590.28	1683.43
590.48	1726.44
590.68	1742.82
590.88	1685.48
591.08	1708.01
591.28	1689.57
591.47	1765.35
591.67	1638.38
591.87	1710.05
592.07	1773.54
592.27	1634.28
592.47	1619.94
592.67	1675.24
592.86	1667.05
593.06	1746.92
593.26	1787.88
593.46	1744.87
593.66	1648.61
593.86	1806.31
594.05	1718.25
594.25	1667.05
594.45	1708.01
594.65	1837.03
594.85	1687.53
595.05	1775.59
595.24	1667.05
595.44	1595.37
595.64	1658.85
595.84	1724.39
596.04	1681.38
596.23	1689.57
596.43	1769.44
596.63	1681.38
596.83	1687.53
597.03	1779.68
597.22	1771.49
597.42	1839.08
597.62	1662.95
597.82	1685.48
598.02	1738.73
598.21	1634.28
598.41	1703.91
598.61	1742.82
598.81	1662.95
599.01	1710.05
599.20	1734.63
599.40	1646.57
599.60	1748.97
599.80	1654.76
600.00	1767.40
600.19	1699.81
600.39	1669.09
600.59	1787.88
600.79	1742.82
600.98	1708.01
601.18	1740.77
601.38	1769.44
601.58	1591.27
601.78	1779.68
601.97	1783.78
602.17	1687.53
602.37	1673.19
602.57	1785.83
602.76	1791.97
602.96	1742.82
603.16	1638.38
603.36	1798.12
603.55	1740.77
603.75	1695.72
603.95	1781.73
604.15	1732.58
604.34	1671.14
604.54	1753.06
604.74	1830.88
604.94	1708.01
605.13	1669.09
605.33	1722.34
605.53	1683.43
605.73	1789.92
605.92	1681.38
606.12	1671.14
606.32	1718.25
606.52	1785.83
606.71	1755.11
606.91	1765.35
607.11	1791.97
607.30	1720.29
607.50	1724.39
607.70	1769.44
607.90	1636.33
608.09	1671.14
608.29	1734.63
608.49	1859.56
608.68	1642.47
608.88	1654.76
609.08	1683.43
609.28	1765.35
609.47	1703.91
609.67	1722.34
609.87	1683.43
610.06	1746.92
610.26	1675.24
610.46	1853.41
610.66	1630.18
610.85	1650.66
611.05	1746.92
611.25	1722.34
611.44	1683.43
611.64	1775.59
611.84	1722.34
612.03	1716.20
612.23	1720.29
612.43	1779.68
612.62	1742.82
612.82	1691.62
613.02	1742.82
613.21	1675.24
613.41	1742.82
613.61	1697.77
613.80	1624.04
614.00	1689.57
614.20	1763.30
614.39	1724.39
614.59	1724.39
614.79	1738.73
614.98	1724.39
615.18	1720.29
615.38	1728.49
615.57	1708.01
615.77	1863.65
615.97	1650.66
616.16	1679.33
616.36	1796.07
616.56	1685.48
616.75	1714.15
616.95	1648.61
617.15	1812.45
617.34	1652.71
617.54	1808.36
617.74	1851.36
617.93	1812.45
618.13	1654.76
618.32	1679.33
618.52	1710.05
618.72	1697.77
618.91	1773.54
619.11	1834.98
619.31	1671.14
619.50	1646.57
619.70	1685.48
619.90	1724.39
620.09	1736.68
620.29	1669.09
620.48	1763.30
620.68	1710.05
620.88	1730.53
621.07	1808.36
621.27	1685.48
621.46	1699.81
621.66	1802.21
621.86	1738.73
622.05	1671.14
622.25	1814.50
622.44	1619.94
622.64	1695.72
622.84	1736.68
623.03	1665.00
623.23	1724.39
623.42	1810.40
623.62	1703.91
623.82	1732.58
624.01	1736.68
624.21	1722.34
624.40	1847.27
624.60	1646.57
624.80	1693.67
624.99	1724.39
625.19	1718.25
625.38	1699.81
625.58	1720.29
625.77	1748.97
625.97	1828.84
626.17	1671.14
626.36	1691.62
626.56	1695.72
626.75	1615.85
626.95	1822.69
627.14	1740.77
627.34	1628.14
627.54	1699.81
627.73	1824.74
627.93	1724.39
628.12	1712.10
628.32	1712.10
628.51	1619.94
628.71	1798.12
628.90	1781.73
629.10	1634.28
629.30	1691.62
629.49	1769.44
629.69	1695.72
629.88	1650.66
630.08	1855.46
630.27	1896.42
630.47	1785.83
630.66	1642.47
630.86	1722.34
631.05	1728.49
631.25	1665.00
631.44	1826.79
631.64	1675.24
631.84	1669.09
632.03	1800.16
632.23	1701.86
632.42	1679.33
632.62	1677.29
632.81	1626.09
633.01	1730.53
633.20	1902.56
633.40	1816.55
633.59	1746.92
633.79	1781.73
633.98	1746.92
634.18	1810.40
634.37	1796.07
634.57	1675.24
634.76	1693.67
634.96	1816.55
635.15	1843.17
635.35	1720.29
635.54	1787.88
635.74	1728.49
635.93	1658.85
636.13	1683.43
636.32	1777.64
636.52	1769.44
636.71	1755.11
636.91	1693.67
637.10	1777.64
637.30	1728.49
637.49	1748.97
637.69	1744.87
637.88	1673.19
638.08	1695.72
638.27	1726.44
638.46	1800.16
638.66	1683.43
638.85	1691.62
639.05	1724.39
639.24	1886.18
639.44	1718.25
639.63	1763.30
639.83	1755.11
640.02	1742.82
640.22	1736.68
640.41	1705.96
640.61	1732.58
640.80	1726.44
640.99	1724.39
641.19	1814.50
641.38	1804.26
641.58	1712.10
641.77	1701.86
641.97	1630.18
642.16	1724.39
642.36	1779.68
642.55	1708.01
642.74	1781.73
642.94	1648.61
643.13	1658.85
643.33	1753.06
643.52	1785.83
643.72	1759.21
643.91	1691.62
644.10	1787.88
644.30	1687.53
644.49	1699.81
644.69	1777.64
644.88	1683.43
645.08	1716.20
645.27	1746.92
645.46	1628.14
645.66	1699.81
645.85	1716.20
646.05	1730.53
646.24	1621.99
646.43	1720.29
646.63	1675.24
646.82	1683.43
647.02	1720.29
647.21	1857.51
647.40	1736.68
647.60	1665.00
647.79	1761.25
647.99	1699.81
648.18	1685.48
648.37	1765.35
648.57	1689.57
648.76	1679.33
648.96	1710.05
649.15	1722.34
649.34	1853.41
649.54	1753.06
649.73	1720.29
649.92	1740.77
650.12	1685.48
650.31	1624.04
650.51	1918.95
650.70	1773.54
650.89	1744.87
651.09	1847.27
651.28	1808.36
651.47	1671.14
651.67	1808.36
651.86	1781.73
652.06	1642.47
652.25	1800.16
652.44	1585.13
652.64	1732.58
652.83	1718.25
653.02	1748.97
653.22	1791.97
653.41	1714.15
653.60	1703.91
653.80	1673.19
653.99	1779.68
654.18	1675.24
654.38	1642.47
654.57	1771.49
654.76	1712.10
654.96	1753.06
655.15	1697.77
655.34	1783.78
655.54	1642.47
655.73	1658.85
655.92	1716.20
656.12	1720.29
656.31	1826.79
656.50	1765.35
656.70	1716.20
656.89	1642.47
657.08	1601.51
657.28	1712.10
657.47	1722.34
657.66	1716.20
657.86	1654.76
658.05	1697.77
658.24	1738.73
658.43	1871.84
658.63	1619.94
658.82	1761.25
659.01	1718.25
659.21	1820.64
659.40	1699.81
659.59	1728.49
659.79	1646.57
659.98	1834.98
660.17	1710.05
660.36	1781.73
660.56	1812.45
660.75	1810.40
660.94	1712.10
661.14	1714.15
661.33	1636.33
661.52	1652.71
661.71	1820.64
661.91	1802.21
662.10	1751.01
662.29	1665.00
662.49	1691.62
662.68	1650.66
662.87	1703.91
663.06	1736.68
663.26	1679.33
663.45	1863.65
663.64	1712.10
663.83	1675.24
664.03	1832.93
664.22	1783.78
664.41	1787.88
664.60	1808.36
664.80	1605.61
664.99	1787.88
665.18	1703.91
665.37	1748.97
665.57	1812.45
665.76	1658.85
665.95	1742.82
666.14	1701.86
666.34	1751.01
666.53	1812.45
666.72	1652.71
666.91	1675.24
667.11	1767.40
667.30	1851.36
667.49	1638.38
667.68	1877.99
667.87	1734.63
668.07	1779.68
668.26	1667.05
668.45	1630.18
668.64	1703.91
668.84	1796.07
669.03	1738.73
669.22	1822.69
669.41	1787.88
669.60	1669.09
669.80	1834.98
669.99	1724.39
670.18	1669.09
670.37	1867.75
670.57	1771.49
670.76	1736.68
670.95	1834.98
671.14	1791.97
671.33	1660.90
671.53	1796.07
671.72	1748.97
671.91	1804.26
672.10	1718.25
672.29	1810.40
672.48	1642.47
672.68	1667.05
672.87	1697.77
673.06	1765.35
673.25	1703.91
673.44	1689.57
673.64	1683.43
673.83	1716.20
674.02	1703.91
674.21	1746.92
674.40	1697.77
674.59	1685.48
674.79	1726.44
674.98	1781.73
675.17	1773.54
675.36	1601.51
675.55	1728.49
675.74	1705.96
675.94	1841.12
676.13	1802.21
676.32	1705.96
676.51	1746.92
676.70	1587.18
676.89	1720.29
677.08	1638.38
677.28	1810.40
677.47	1748.97
677.66	1734.63
677.85	1621.99
678.04	1761.25
678.23	1763.30
678.42	1669.09
678.62	1714.15
678.81	1722.34
679.00	1779.68
679.19	1761.25
679.38	1802.21
679.57	1736.68
679.76	1736.68
679.96	1701.86
680.15	1785.83
680.34	1710.05
680.53	1751.01
680.72	1837.03
680.91	1738.73
681.10	1753.06
681.29	1775.59
681.48	1757.16
681.68	1648.61
681.87	1855.46
682.06	1761.25
682.25	1808.36
682.44	1679.33
682.63	1839.08
682.82	1630.18
683.01	1847.27
683.20	1650.66
683.39	1757.16
683.59	1697.77
683.78	1667.05
683.97	1699.81
684.16	1705.96
684.35	1583.08
684.54	1785.83
684.73	1693.67
684.92	1619.94
685.11	1800.16
685.30	1812.45
685.49	1789.92
685.69	1845.22
685.88	1705.96
686.07	1665.00
686.26	1699.81
686.45	1761.25
686.64	1755.11
686.83	1753.06
687.02	1701.86
687.21	1845.22
687.40	1748.97
687.59	1853.41
687.78	1736.68
687.97	1779.68
688.16	1759.21
688.35	1650.66
688.54	1726.44
688.74	1613.80
688.93	1765.35
689.12	1599.46
689.31	1816.55
689.50	1771.49
689.69	1662.95
689.88	1755.11
690.07	1722.34
690.26	1730.53
690.45	1673.19
690.64	1693.67
690.83	1654.76
691.02	1675.24
691.21	1765.35
691.40	1703.91
691.59	1638.38
691.78	1740.77
691.97	1656.81
692.16	1789.92
692.35	1751.01
692.54	1824.74
692.73	1730.53
692.92	1773.54
693.11	1740.77
693.30	1789.92
693.49	1658.85
693.68	1789.92
693.87	1671.14
694.06	1673.19
694.25	1560.55
694.44	1665.00
694.63	1642.47
694.82	1671.14
695.01	1714.15
695.20	1742.82
695.39	1693.67
695.58	1744.87
695.77	1624.04
695.96	1736.68
696.15	1675.24
696.34	1689.57
696.53	1621.99
696.72	1697.77
696.91	1703.91
697.10	1724.39
697.29	1716.20
697.48	1843.17
697.67	1761.25
697.86	1705.96
698.05	1708.01
698.24	1683.43
698.43	1656.81
698.62	1722.34
698.81	1669.09
699.00	1798.12
699.19	1804.26
699.38	1640.42
699.57	1742.82
699.76	1748.97
699.95	1652.71
700.14	1703.91
700.32	1751.01
700.51	1667.05
700.70	1693.67
700.89	1796.07
701.08	1822.69
701.27	1665.00
701.46	1789.92
701.65	1708.01
701.84	1728.49
702.03	1599.46
702.22	1781.73
702.41	1783.78
702.60	1761.25
702.79	1730.53
702.98	1710.05
703.17	1740.77
703.35	1712.10
703.54	1728.49
703.73	1687.53
703.92	1628.14
704.11	1646.57
704.30	1755.11
704.49	1777.64
704.68	1705.96
704.87	1742.82
705.06	1757.16
705.25	1673.19
705.43	1648.61
705.62	1710.05
705.81	1775.59
706.00	1716.20
706.19	1748.97
706.38	1691.62
706.57	1828.84
706.76	1662.95
706.95	1722.34
707.14	1767.40
707.32	1720.29
707.51	1619.94
707.70	1734.63
707.89	1699.81
708.08	1607.66
708.27	1673.19
708.46	1742.82
708.65	1648.61
708.84	1781.73
709.02	1726.44
709.21	1609.70
709.40	1720.29
709.59	1757.16
709.78	1669.09
709.97	1654.76
710.16	1761.25
710.34	1722.34
710.53	1767.40
710.72	1640.42
710.91	1763.30
711.10	1753.06
711.29	1712.10
711.48	1757.16
711.66	1738.73
711.85	1648.61
712.04	1740.77
712.23	1687.53
712.42	1759.21
712.61	1753.06
712.80	1730.53
712.98	1685.48
713.17	1699.81
713.36	1742.82
713.55	1738.73
713.74	1740.77
713.93	1783.78
714.11	1759.21
714.30	1562.60
714.49	1845.22
714.68	1730.53
714.87	1687.53
715.06	1789.92
715.24	1769.44
715.43	1697.77
715.62	1650.66
715.81	1697.77
716.00	1748.97
716.18	1640.42
716.37	1744.87
716.56	1669.09
716.75	1691.62
716.94	1757.16
717.12	1714.15
717.31	1759.21
717.50	1691.62
717.69	1765.35
717.88	1708.01
718.06	1658.85
718.25	1732.58
718.44	1656.81
718.63	1791.97
718.82	1654.76
719.00	1718.25
719.19	1832.93
719.38	1691.62
719.57	1740.77
719.76	1708.01
719.94	1699.81
720.13	1652.71
720.32	1818.60
720.51	1699.81
720.69	1718.25
720.88	1761.25
721.07	1757.16
721.26	1718.25
721.44	1826.79
721.63	1665.00
721.82	1683.43
722.01	1798.12
722.20	1662.95
722.38	1751.01
722.57	1587.18
722.76	1755.11
722.95	1683.43
723.13	1769.44
723.32	1796.07
723.51	1710.05
723.70	1726.44
723.88	1767.40
724.07	1619.94
724.26	1804.26
724.44	1705.96
724.63	1740.77
724.82	1730.53
725.01	1697.77
725.19	1675.24
725.38	1744.87
725.57	1685.48
725.76	1740.77
725.94	1722.34
726.13	1679.33
726.32	1687.53
726.51	1705.96
726.69	1671.14
726.88	1732.58
727.07	1730.53
727.25	1683.43
727.44	1738.73
727.63	1630.18
727.82	1720.29
728.00	1683.43
728.19	1679.33
728.38	1656.81
728.56	1581.03
728.75	1724.39
728.94	1728.49
729.12	1755.11
729.31	1665.00
729.50	1712.10
729.69	1753.06
729.87	1689.57
730.06	1703.91
730.25	1757.16
730.43	1734.63
730.62	1634.28
730.81	1685.48
730.99	1683.43
731.18	1667.05
731.37	1748.97
731.55	1759.21
731.74	1699.81
731.93	1726.44
732.11	1665.00
732.30	1748.97
732.49	1761.25
732.67	1716.20
732.86	1669.09
733.05	1691.62
733.23	1748.97
733.42	1677.29
733.61	1648.61
733.79	1783.78
733.98	1755.11
734.17	1669.09
734.35	1771.49
734.54	1724.39
734.73	1765.35
734.91	1597.42
735.10	1697.77
735.29	1705.96
735.47	1667.05
735.66	1583.08
735.84	1730.53
736.03	1699.81
736.22	1769.44
736.40	1685.48
736.59	1597.42
736.78	1652.71
736.96	1673.19
737.15	1742.82
737.33	1744.87
737.52	1673.19
737.71	1693.67
737.89	1703.91
738.08	1708.01
738.27	1714.15
738.45	1708.01
738.64	1759.21
738.82	1695.72
739.01	1718.25
739.20	1685.48
739.38	1697.77
739.57	1781.73
739.75	1675.24
739.94	1703.91
740.13	1613.80
740.31	1779.68
740.50	1730.53
740.68	1675.24
740.87	1642.47
741.06	1734.63
741.24	1800.16
741.43	1705.96
741.61	1646.57
741.80	1683.43
741.99	1705.96
742.17	1787.88
742.36	1642.47
742.54	1714.15
742.73	1689.57
742.91	1705.96
743.10	1697.77
743.29	1708.01
743.47	1650.66
743.66	1630.18
743.84	1765.35
744.03	1693.67
744.21	1693.67
744.40	1691.62
744.59	1767.40
744.77	1642.47
744.96	1701.86
745.14	1697.77
745.33	1677.29
745.51	1703.91
745.70	1646.57
745.88	1755.11
746.07	1679.33
746.26	1763.30
746.44	1695.72
746.63	1615.85
746.81	1718.25
747.00	1644.52
747.18	1654.76
747.37	1597.42
747.55	1720.29
747.74	1986.53
747.92	1738.73
748.11	1740.77
748.29	1740.77
748.48	1785.83
748.66	1683.43
748.85	1693.67
749.03	1710.05
749.22	1642.47
749.41	1677.29
749.59	1765.35
749.78	1726.44
749.96	1531.88
750.15	1699.81
750.33	1767.40
750.52	1658.85
750.70	1738.73
750.89	1753.06
751.07	1660.90
751.26	1740.77
751.44	1667.05
751.63	1712.10
751.81	1716.20
752.00	1654.76
752.18	1710.05
752.37	1699.81
752.55	1685.48
752.74	1630.18
752.92	1722.34
753.10	1673.19
753.29	1703.91
753.47	1714.15
753.66	1617.90
753.84	1628.14
754.03	1611.75
754.21	1695.72
754.40	1734.63
754.58	1769.44
754.77	1818.60
754.95	1734.63
755.14	1681.38
755.32	1654.76
755.51	1572.84
755.69	1617.90
755.88	1517.54
756.06	1693.67
756.24	1624.04
756.43	1681.38
756.61	1720.29
756.80	1628.14
756.98	1695.72
757.17	1718.25
757.35	1736.68
757.54	1753.06
757.72	1699.81
757.90	1677.29
758.09	1740.77
758.27	1667.05
758.46	1695.72
758.64	1732.58
758.83	1687.53
759.01	1714.15
759.19	1753.06
759.38	1738.73
759.56	1728.49
759.75	1601.51
759.93	1757.16
760.12	1681.38
760.30	1683.43
760.48	1681.38
760.67	1710.05
760.85	1667.05
761.04	1681.38
761.22	1662.95
761.40	1716.20
761.59	1736.68
761.77	1732.58
761.96	1687.53
762.14	1705.96
762.32	1773.54
762.51	1566.70
762.69	1642.47
762.88	1701.86
763.06	1589.22
763.24	1609.70
763.43	1679.33
763.61	1736.68
763.80	1646.57
763.98	1716.20
764.16	1581.03
764.35	1613.80
764.53	1665.00
764.72	1568.74
764.90	1609.70
765.08	1691.62
765.27	1740.77
765.45	1593.32
765.63	1681.38
765.82	1662.95
766.00	1609.70
766.18	1671.14
766.37	1665.00
766.55	1746.92
766.74	1685.48
766.92	1677.29
767.10	1626.09
767.29	1781.73
767.47	1697.77
767.65	1660.90
767.84	1679.33
768.02	1738.73
768.20	1746.92
768.39	1710.05
768.57	1710.05
768.75	1675.24
768.94	1765.35
769.12	1560.55
769.30	1662.95
769.49	1716.20
769.67	1634.28
769.85	1849.32
770.04	1687.53
770.22	1660.90
770.40	1730.53
770.59	1748.97
770.77	1789.92
770.95	1714.15
771.14	1820.64
771.32	1593.32
771.50	1597.42
771.69	1570.79
771.87	1699.81
772.05	1658.85
772.24	1581.03
772.42	1677.29
772.60	1722.34
772.78	1781.73
772.97	1566.70
773.15	1699.81
773.33	1710.05
773.52	1662.95
773.70	1658.85
773.88	1730.53
774.07	1628.14
774.25	1683.43
774.43	1699.81
774.61	1695.72
774.80	1587.18
774.98	1652.71
775.16	1628.14
775.34	1697.77
775.53	1697.77
775.71	1667.05
775.89	1701.86
776.08	1658.85
776.26	1685.48
776.44	1607.66
776.62	1648.61
776.81	1648.61
776.99	1683.43
777.17	1675.24
777.35	1724.39
777.54	1714.15
777.72	1732.58
777.90	1705.96
778.08	1636.33
778.27	1699.81
778.45	1644.52
778.63	1626.09
778.81	1718.25
779.00	1720.29
779.18	1714.15
779.36	1685.48
779.54	1781.73
779.73	1648.61
779.91	1615.85
780.09	1652.71
780.27	1638.38
780.46	1621.99
780.64	1617.90
780.82	1644.52
781.00	1634.28
781.19	1591.27
781.37	1679.33
781.55	1722.34
781.73	1675.24
781.91	1671.14
782.10	1724.39
782.28	1763.30
782.46	1730.53
782.64	1716.20
782.82	1746.92
783.01	1693.67
783.19	1779.68
783.37	1624.04
783.55	1705.96
783.74	1636.33
783.92	1613.80
784.10	1705.96
784.28	1730.53
784.46	1669.09
784.64	1617.90
784.83	1689.57
785.01	1851.36
785.19	1804.26
785.37	1691.62
785.55	1662.95
785.74	1658.85
785.92	1693.67
786.10	1705.96
786.28	1763.30
786.46	1697.77
786.64	1648.61
786.83	1665.00
787.01	1738.73
787.19	1744.87
787.37	1708.01
787.55	1691.62
787.74	1726.44
787.92	1687.53
788.10	1734.63
788.28	1693.67
788.46	1650.66
788.64	1761.25
788.82	1781.73
789.01	1581.03
789.19	1650.66
789.37	1734.63
789.55	1687.53
789.73	1654.76
789.91	1691.62
790.09	1734.63
790.28	1642.47
790.46	1648.61
790.64	1775.59
790.82	1603.56
791.00	1595.37
791.18	1617.90
791.36	1753.06
791.55	1646.57
791.73	1581.03
791.91	1648.61
792.09	1626.09
792.27	1568.74
792.45	1689.57
792.63	1744.87
792.81	1636.33
793.00	1619.94
793.18	1701.86
793.36	1783.78
793.54	1642.47
793.72	1658.85
793.90	1791.97
794.08	1587.18
794.26	1744.87
794.44	1574.89
794.62	1671.14
794.81	1605.61
794.99	1617.90
795.17	1765.35
795.35	1599.46
795.53	1734.63
795.71	1708.01
795.89	1691.62
796.07	1681.38
796.25	1603.56
796.43	1791.97
796.61	1665.00
796.80	1699.81
796.98	1703.91
797.16	1699.81
797.34	1673.19
797.52	1630.18
797.70	1728.49
797.88	1763.30
798.06	1583.08
798.24	1730.53
798.42	1675.24
798.60	1779.68
798.78	1675.24
798.96	1826.79
799.14	1673.19
799.32	1759.21
799.51	1658.85
799.69	1677.29
799.87	1794.02
800.05	1687.53
800.23	1611.75
800.41	1773.54
800.59	1681.38
800.77	1613.80
800.95	1615.85
801.13	1724.39
801.31	1693.67
801.49	1791.97
801.67	1660.90
801.85	1603.56
802.03	1687.53
802.21	1687.53
802.39	1570.79
802.57	1738.73
802.75	1699.81
802.93	1777.64
803.11	1605.61
803.29	1693.67
803.47	1691.62
803.65	1593.32
803.83	1699.81
804.01	1665.00
804.19	1718.25
804.37	1665.00
804.55	1626.09
804.73	1632.23
804.91	1650.66
805.09	1632.23
805.27	1683.43
805.45	1619.94
805.63	1718.25
805.81	1665.00
805.99	1777.64
806.17	1730.53
806.35	1587.18
806.53	1667.05
806.71	1679.33
806.89	1609.70
807.07	1753.06
807.25	1753.06
807.43	1593.32
807.61	1787.88
807.79	1673.19
807.97	1683.43
808.15	1708.01
808.33	1654.76
808.51	1773.54
808.69	1691.62
808.87	1662.95
809.05	1650.66
809.23	1609.70
809.41	1642.47
809.59	1624.04
809.77	1712.10
809.95	1701.86
810.13	1714.15
810.31	1669.09
810.49	1691.62
810.67	1691.62
810.84	1669.09
811.02	1703.91
811.20	1601.51
811.38	1779.68
811.56	1667.05
811.74	1689.57
811.92	1603.56
812.10	1599.46
812.28	1675.24
812.46	1638.38
812.64	1669.09
812.82	1589.22
813.00	1669.09
813.18	1650.66
813.36	1691.62
813.53	1665.00
813.71	1740.77
813.89	1667.05
814.07	1636.33
814.25	1691.62
814.43	1619.94
814.61	1607.66
814.79	1660.90
814.97	1716.20
815.15	1648.61
815.33	1632.23
815.50	1699.81
815.68	1636.33
815.86	1738.73
816.04	1726.44
816.22	1624.04
816.40	1712.10
816.58	1634.28
816.76	1583.08
816.94	1669.09
817.11	1626.09
817.29	1617.90
817.47	1730.53
817.65	1630.18
817.83	1656.81
818.01	1695.72
818.19	1654.76
818.37	1728.49
818.54	1687.53
818.72	1667.05
818.90	1714.15
819.08	1566.70
819.26	1703.91
819.44	1744.87
819.62	1683.43
819.80	1546.22
819.97	1783.78
820.15	1603.56
820.33	1589.22
820.51	1667.05
820.69	1691.62
820.87	1746.92
821.05	1728.49
821.22	1626.09
821.40	1708.01
821.58	1644.52
821.76	1617.90
821.94	1574.89
822.12	1687.53
822.29	1708.01
822.47	1662.95
822.65	1726.44
822.83	1646.57
823.01	1691.62
823.19	1578.98
823.36	1667.05
823.54	1626.09
823.72	1654.76
823.90	1699.81
824.08	1607.66
824.25	1650.66
824.43	1693.67
824.61	1685.48
824.79	1744.87
824.97	1611.75
825.15	1681.38
825.32	1603.56
825.50	1671.14
825.68	1685.48
825.86	1732.58
826.04	1638.38
826.21	1710.05
826.39	1689.57
826.57	1658.85
826.75	1757.16
826.93	1665.00
827.10	1716.20
827.28	1640.42
827.46	1671.14
827.64	1697.77
827.81	1677.29
827.99	1615.85
828.17	1679.33
828.35	1638.38
828.53	1624.04
828.70	1712.10
828.88	1673.19
829.06	1615.85
829.24	1576.94
829.41	1736.68
829.59	1695.72
829.77	1621.99
829.95	1685.48
830.12	1611.75
830.30	1708.01
830.48	1671.14
830.66	1640.42
830.84	1693.67
831.01	1679.33
831.19	1607.66
831.37	1699.81
831.55	1642.47
831.72	1697.77
831.90	1617.90
832.08	1683.43
832.25	1726.44
832.43	1689.57
832.61	1798.12
832.79	1640.42
832.96	1695.72
833.14	1761.25
833.32	1654.76
833.50	1593.32
833.67	1755.11
833.85	1656.81
834.03	1574.89
834.20	1693.67
834.38	1728.49
834.56	1628.14
834.74	1658.85
834.91	1673.19
835.09	1751.01
835.27	1697.77
835.44	1703.91
835.62	1638.38
835.80	1675.24
835.98	1587.18
836.15	1722.34
836.33	1601.51
836.51	1597.42
836.68	1640.42
836.86	1648.61
837.04	1697.77
837.21	1839.08
837.39	1767.40
837.57	1775.59
837.75	1615.85
837.92	1699.81
838.10	1640.42
838.28	1660.90
838.45	1734.63
838.63	1576.94
838.81	1671.14
838.98	1740.77
839.16	1675.24
839.34	1574.89
839.51	1626.09
839.69	1626.09
839.87	1642.47
840.04	1662.95
840.22	1931.23
840.40	1628.14
840.57	1621.99
840.75	1697.77
840.93	1568.74
841.10	1679.33
841.28	1701.86
841.46	1687.53
841.63	1665.00
841.81	1605.61
841.98	1603.56
842.16	1662.95
842.34	1581.03
842.51	1533.93
842.69	1658.85
842.87	1607.66
843.04	1765.35
843.22	1581.03
843.40	1607.66
843.57	1646.57
843.75	1626.09
843.92	1740.77
844.10	1703.91
844.28	1652.71
844.45	1572.84
844.63	1679.33
844.81	1724.39
844.98	1771.49
845.16	1779.68
845.33	1730.53
845.51	1673.19
845.69	1759.21
845.86	1738.73
846.04	1597.42
846.21	1550.31
846.39	1593.32
846.57	1650.66
846.74	1593.32
846.92	1710.05
847.09	1599.46
847.27	1634.28
847.45	1630.18
847.62	1697.77
847.80	1675.24
847.97	1656.81
848.15	1603.56
848.32	1652.71
848.50	1689.57
848.68	1587.18
848.85	1705.96
849.03	1521.64
849.20	1613.80
849.38	1613.80
849.56	1662.95
849.73	1519.59
849.91	1718.25
850.08	1693.67
850.26	1527.78
850.43	1683.43
850.61	1712.10
850.78	1572.84
850.96	1685.48
851.14	1538.02
851.31	1740.77
851.49	1699.81
851.66	1740.77
851.84	1601.51
852.01	1708.01
852.19	1626.09
852.36	1630.18
852.54	1673.19
852.71	1572.84
852.89	1648.61
853.07	1605.61
853.24	1568.74
853.42	1626.09
853.59	1646.57
853.77	1687.53
853.94	1703.91
854.12	1845.22
854.29	1611.75
854.47	1613.80
854.64	1712.10
854.82	1714.15
854.99	1734.63
855.17	1638.38
855.34	1646.57
855.52	1677.29
855.69	1736.68
855.87	1632.23
856.04	1679.33
856.22	1738.73
856.39	1638.38
856.57	1621.99
856.74	1609.70
856.92	1701.86
857.09	1648.61
857.27	1679.33
857.44	1665.00
857.62	1689.57
857.79	1636.33
857.97	1703.91
858.14	1601.51
858.32	1597.42
858.49	1589.22
858.67	1679.33
858.84	1636.33
859.02	1689.57
859.19	1673.19
859.37	1558.50
859.54	1689.57
859.72	1621.99
859.89	1648.61
860.06	1552.36
860.24	1675.24
860.41	1626.09
860.59	1568.74
860.76	1665.00
860.94	1593.32
861.11	1642.47
861.29	1691.62
861.46	1621.99
861.64	1679.33
861.81	1781.73
861.98	1599.46
862.16	1597.42
862.33	1601.51
862.51	1566.70
862.68	1609.70
862.86	1624.04
863.03	1593.32
863.21	1632.23
863.38	1587.18
863.55	1665.00
863.73	1650.66
863.90	1681.38
864.08	1658.85
864.25	1634.28
864.43	1667.05
864.60	1611.75
864.77	1626.09
864.95	1652.71
865.12	1568.74
865.30	1658.85
865.47	1691.62
865.64	1728.49
865.82	1624.04
865.99	1771.49
866.17	1718.25
866.34	1679.33
866.51	1599.46
866.69	1765.35
866.86	1726.44
867.04	1718.25
867.21	1605.61
867.38	1615.85
867.56	1617.90
867.73	1808.36
867.91	1632.23
868.08	1642.47
868.25	1669.09
868.43	1667.05
868.60	1640.42
868.78	1548.26
868.95	1654.76
869.12	1716.20
869.30	1574.89
869.47	1746.92
869.64	1642.47
869.82	1615.85
869.99	1728.49
870.16	1607.66
870.34	1640.42
870.51	1816.55
870.69	1628.14
870.86	1683.43
871.03	1634.28
871.21	1691.62
871.38	1783.78
871.55	1667.05
871.73	1607.66
871.90	1665.00
872.07	1535.98
872.25	1531.88
872.42	1640.42
872.59	1554.41
872.77	1667.05
872.94	1695.72
873.11	1687.53
873.29	1734.63
873.46	1624.04
873.63	1634.28
873.81	1626.09
873.98	1681.38
874.15	1673.19
874.33	1662.95
874.50	1642.47
874.67	1675.24
874.85	1562.60
875.02	1552.36
875.19	1568.74
875.37	1665.00
875.54	1597.42
875.71	1656.81
875.88	1683.43
876.06	1646.57
876.23	1708.01
876.40	1662.95
876.58	1656.81
876.75	1685.48
876.92	1624.04
877.10	1665.00
877.27	1746.92
877.44	1691.62
877.61	1556.46
877.79	1728.49
877.96	1621.99
878.13	1626.09
878.31	1683.43
878.48	1681.38
878.65	1642.47
878.82	1558.50
879.00	1701.86
879.17	1716.20
879.34	1615.85
879.51	1574.89
879.69	1630.18
879.86	1527.78
880.03	1677.29
880.21	1660.90
880.38	1607.66
880.55	1712.10
880.72	1697.77
880.90	1669.09
881.07	1660.90
881.24	1765.35
881.41	1628.14
881.59	1638.38
881.76	1660.90
881.93	1689.57
882.10	1632.23
882.28	1617.90
882.45	1773.54
882.62	1591.27
882.79	1691.62
882.96	1671.14
883.14	1589.22
883.31	1662.95
883.48	1632.23
883.65	1665.00
883.83	1644.52
884.00	1624.04
884.17	1507.30
884.34	1685.48
884.51	1683.43
884.69	1724.39
884.86	1642.47
885.03	1673.19
885.20	1542.12
885.38	1777.64
885.55	1642.47
885.72	1685.48
885.89	1583.08
886.06	1593.32
886.24	1589.22
886.41	1613.80
886.58	1695.72
886.75	1712.10
886.92	1648.61
887.10	1595.37
887.27	1681.38
887.44	1753.06
887.61	1767.40
887.78	1650.66
887.95	1736.68
888.13	1599.46
888.30	1701.86
888.47	1630.18
888.64	1695.72
888.81	1693.67
888.99	1593.32
889.16	1646.57
889.33	1583.08
889.50	1693.67
889.67	1667.05
889.84	1669.09
890.01	1693.67
890.19	1703.91
890.36	1644.52
890.53	1650.66
890.70	1605.61
890.87	1644.52
891.04	1597.42
891.22	1673.19
891.39	1613.80
891.56	1687.53
891.73	1677.29
891.90	1708.01
892.07	1554.41
892.24	1667.05
892.42	1624.04
892.59	1601.51
892.76	1671.14
892.93	1546.22
893.10	1648.61
893.27	1681.38
893.44	1581.03
893.61	1652.71
893.79	1671.14
893.96	1621.99
894.13	1665.00
894.30	1652.71
894.47	1701.86
894.64	1722.34
894.81	1626.09
894.98	1609.70
895.15	1650.66
895.33	1679.33
895.50	1638.38
895.67	1632.23
895.84	1669.09
896.01	1626.09
896.18	1587.18
896.35	1742.82
896.52	1621.99
896.69	1630.18
896.86	1654.76
897.04	1761.25
897.21	1667.05
897.38	1675.24
897.55	1677.29
897.72	1691.62
897.89	1591.27
898.06	1650.66
898.23	1601.51
898.40	1738.73
898.57	1656.81
898.74	1667.05
898.91	1667.05
899.08	1603.56
899.26	1691.62
899.43	1724.39
899.60	1619.94
899.77	1703.91
899.94	1607.66
900.11	1566.70
900.28	1636.33
900.45	1587.18
900.62	1568.74
900.79	1681.38
900.96	1638.38
901.13	1654.76
901.30	1562.60
901.47	1560.55
901.64	1562.60
901.81	1665.00
901.98	1675.24
902.15	1705.96
902.32	1503.21
902.49	1679.33
902.66	1638.38
902.83	1660.90
903.01	1646.57
903.18	1605.61
903.35	1533.93
903.52	1671.14
903.69	1720.29
903.86	1628.14
904.03	1660.90
904.20	1720.29
904.37	1703.91
904.54	1595.37
904.71	1650.66
904.88	1644.52
905.05	1519.59
905.22	1662.95
905.39	1546.22
905.56	1572.84
905.73	1578.98
905.90	1677.29
906.07	1613.80
906.24	1685.48
906.41	1628.14
906.58	1716.20
906.75	1626.09
906.92	1556.46
907.09	1603.56
907.26	1640.42
907.43	1556.46
907.60	1640.42
907.77	1656.81
907.93	1697.77
908.10	1556.46
908.27	1656.81
908.44	1597.42
908.61	1513.45
908.78	1646.57
908.95	1761.25
909.12	1621.99
909.29	1626.09
909.46	1687.53
909.63	1691.62
909.80	1656.81
909.97	1681.38
910.14	1621.99
910.31	1617.90
910.48	1630.18
910.65	1660.90
910.82	1568.74
910.99	1646.57
911.16	1683.43
911.33	1720.29
911.50	1585.13
911.66	1646.57
911.83	1734.63
912.00	1568.74
912.17	1552.36
912.34	1570.79
912.51	1691.62
912.68	1626.09
912.85	1632.23
913.02	1679.33
913.19	1660.90
913.36	1675.24
913.53	1697.77
913.70	1574.89
913.86	1722.34
914.03	1593.32
914.20	1595.37
914.37	1683.43
914.54	1597.42
914.71	1665.00
914.88	1740.77
915.05	1585.13
915.22	1595.37
915.39	1626.09
915.55	1583.08
915.72	1660.90
915.89	1560.55
916.06	1626.09
916.23	1617.90
916.40	1693.67
916.57	1638.38
916.74	1636.33
916.91	1695.72
917.07	1599.46
917.24	1554.41
917.41	1667.05
917.58	1646.57
917.75	1644.52
917.92	1642.47
918.09	1535.98
918.26	1603.56
918.42	1673.19
918.59	1675.24
918.76	1486.83
918.93	1607.66
919.10	1546.22
919.27	1595.37
919.44	1728.49
919.60	1693.67
919.77	1632.23
919.94	1632.23
920.11	1640.42
920.28	1650.66
920.45	1591.27
920.61	1587.18
920.78	1615.85
920.95	1720.29
921.12	1701.86
921.29	1621.99
921.46	1581.03
921.62	1546.22
921.79	1660.90
921.96	1687.53
922.13	1652.71
922.30	1632.23
922.47	1601.51
922.63	1593.32
922.80	1617.90
922.97	1624.04
923.14	1562.60
923.31	1624.04
923.47	1681.38
923.64	1808.36
923.81	1548.26
923.98	1730.53
924.15	1642.47
924.32	1675.24
924.48	1742.82
924.65	1675.24
924.82	1538.02
924.99	1605.61
925.15	1574.89
925.32	1748.97
925.49	1669.09
925.66	1669.09
925.83	1755.11
925.99	1556.46
926.16	1716.20
926.33	1660.90
926.50	1607.66
926.67	1632.23
926.83	1597.42
927.00	1710.05
927.17	1626.09
927.34	1574.89
927.50	1656.81
927.67	1839.08
927.84	1699.81
928.01	1648.61
928.17	1630.18
928.34	1581.03
928.51	1621.99
928.68	1662.95
928.84	1658.85
929.01	1542.12
929.18	1576.94
929.35	1591.27
929.51	1638.38
929.68	1593.32
929.85	1593.32
930.02	1699.81
930.18	1624.04
930.35	1662.95
930.52	1609.70
930.69	1648.61
930.85	1708.01
931.02	1538.02
931.19	1564.65
931.36	1628.14
931.52	1720.29
931.69	1656.81
931.86	1734.63
932.02	1624.04
932.19	1656.81
932.36	1710.05
932.53	1671.14
932.69	1605.61
932.86	1761.25
933.03	1634.28
933.19	1556.46
933.36	1601.51
933.53	1736.68
933.70	1650.66
933.86	1644.52
934.03	1675.24
934.20	1581.03
934.36	1695.72
934.53	1591.27
934.70	1605.61
934.86	1648.61
935.03	1576.94
935.20	1609.70
935.36	1640.42
935.53	1617.90
935.70	1626.09
935.86	1693.67
936.03	1544.17
936.20	1591.27
936.36	1648.61
936.53	1652.71
936.70	1652.71
936.86	1718.25
937.03	1611.75
937.20	1538.02
937.36	1720.29
937.53	1552.36
937.70	1568.74
937.86	1597.42
938.03	1650.66
938.20	1746.92
938.36	1652.71
938.53	1642.47
938.70	1554.41
938.86	1617.90
939.03	1630.18
939.20	1593.32
939.36	1628.14
939.53	1667.05
939.70	1902.56
939.86	1630.18
940.03	1665.00
940.19	1593.32
940.36	1658.85
940.53	1660.90
940.69	1585.13
940.86	1695.72
941.03	1576.94
941.19	1609.70
941.36	1617.90
941.52	1691.62
941.69	1619.94
941.86	1636.33
942.02	1671.14
942.19	1705.96
942.35	1740.77
942.52	1630.18
942.69	1654.76
942.85	1603.56
943.02	1605.61
943.18	1714.15
943.35	1693.67
943.52	1687.53
943.68	1544.17
943.85	1677.29
944.01	1624.04
944.18	1554.41
944.35	1669.09
944.51	1650.66
944.68	1574.89
944.84	1669.09
945.01	1595.37
945.17	1708.01
945.34	1701.86
945.51	1634.28
945.67	1662.95
945.84	1611.75
946.00	1499.11
946.17	1593.32
946.33	1650.66
946.50	1722.34
946.67	1585.13
946.83	1646.57
947.00	1746.92
947.16	1609.70
947.33	1572.84
947.49	1609.70
947.66	1499.11
947.82	1626.09
947.99	1628.14
948.16	1677.29
948.32	1566.70
948.49	1697.77
948.65	1605.61
948.82	1636.33
948.98	1699.81
949.15	1581.03
949.31	1660.90
949.48	1679.33
949.64	1652.71
949.81	1574.89
949.97	1665.00
950.14	1683.43
950.30	1535.98
950.47	1621.99
950.63	1638.38
950.80	1652.71
950.96	1654.76
951.13	1626.09
951.30	1615.85
951.46	1624.04
951.63	1669.09
951.79	1621.99
951.96	1689.57
952.12	1613.80
952.29	1708.01
952.45	1599.46
952.62	1568.74
952.78	1650.66
952.94	1646.57
953.11	1615.85
953.27	1607.66
953.44	1708.01
953.60	1646.57
953.77	1722.34
953.93	1644.52
954.10	1609.70
954.26	1619.94
954.43	1624.04
954.59	1701.86
954.76	1775.59
954.92	1589.22
955.09	1652.71
955.25	1576.94
955.42	1593.32
955.58	1732.58
955.75	1628.14
955.91	1574.89
956.07	1593.32
956.24	1669.09
956.40	1665.00
956.57	1609.70
956.73	1607.66
956.90	1703.91
957.06	1613.80
957.23	1632.23
957.39	1527.78
957.56	1634.28
957.72	1550.31
957.88	1595.37
958.05	1650.66
958.21	1568.74
958.38	1603.56
958.54	1548.26
958.71	1693.67
958.87	1634.28
959.03	1576.94
959.20	1636.33
959.36	1642.47
959.53	1609.70
959.69	1574.89
959.85	1634.28
960.02	1517.54
960.18	1533.93
960.35	1601.51
960.51	1617.90
960.68	1566.70
960.84	1654.76
961.00	1585.13
961.17	1587.18
961.33	1566.70
961.50	1675.24
961.66	1636.33
961.82	1593.32
961.99	1597.42
962.15	1630.18
962.31	1634.28
962.48	1658.85
962.64	1695.72
962.81	1650.66
962.97	1621.99
963.13	1644.52
963.30	1708.01
963.46	1615.85
963.62	1556.46
963.79	1630.18
963.95	1630.18
964.12	1628.14
964.28	1638.38
964.44	1636.33
964.61	1681.38
964.77	1646.57
964.93	1763.30
965.10	1621.99
965.26	1613.80
965.42	1558.50
965.59	1609.70
965.75	1630.18
965.92	1650.66
966.08	1597.42
966.24	1632.23
966.41	1560.55
966.57	1660.90
966.73	1650.66
966.90	1652.71
967.06	1689.57
967.22	1617.90
967.39	1613.80
967.55	1576.94
967.71	1652.71
967.88	1581.03
968.04	1597.42
968.20	1615.85
968.37	1611.75
968.53	1611.75
968.69	1591.27
968.85	1607.66
969.02	1726.44
969.18	1703.91
969.34	1628.14
969.51	1628.14
969.67	1716.20
969.83	1501.16
970.00	1738.73
970.16	1648.61
970.32	1656.81
970.48	1759.21
970.65	1564.65
970.81	1611.75
970.97	1613.80
971.14	1521.64
971.30	1771.49
971.46	1613.80
971.63	1665.00
971.79	1683.43
971.95	1605.61
972.11	1574.89
972.28	1617.90
972.44	1740.77
972.60	1613.80
972.76	1650.66
972.93	1619.94
973.09	1726.44
973.25	1628.14
973.42	1562.60
973.58	1626.09
973.74	1656.81
973.90	1681.38
974.07	1556.46
974.23	1640.42
974.39	1695.72
974.55	1603.56
974.72	1507.30
974.88	1490.92
975.04	1669.09
975.20	1605.61
975.37	1697.77
975.53	1566.70
975.69	1634.28
975.85	1544.17
976.01	1621.99
976.18	1679.33
976.34	1658.85
976.50	1679.33
976.66	1771.49
976.83	1597.42
976.99	1581.03
977.15	1619.94
977.31	1513.45
977.47	1767.40
977.64	1630.18
977.80	1607.66
977.96	1617.90
978.12	1667.05
978.29	1552.36
978.45	1544.17
978.61	1593.32
978.77	1656.81
978.93	1626.09
979.10	1677.29
979.26	1544.17
979.42	1626.09
979.58	1560.55
979.74	1558.50
979.91	1693.67
980.07	1542.12
980.23	1681.38
980.39	1576.94
980.55	1566.70
980.71	1595.37
980.88	1556.46
981.04	1652.71
981.20	1681.38
981.36	1683.43
981.52	1669.09
981.68	1548.26
981.85	1621.99
982.01	1654.76
982.17	1544.17
982.33	1654.76
982.49	1646.57
982.65	1634.28
982.82	1691.62
982.98	1599.46
983.14	1583.08
983.30	1712.10
983.46	1615.85
983.62	1667.05
983.79	1634.28
983.95	1568.74
984.11	1574.89
984.27	1574.89
984.43	1675.24
984.59	1611.75
984.75	1583.08
984.91	1662.95
985.08	1683.43
985.24	1544.17
985.40	1599.46
985.56	1621.99
985.72	1640.42
985.88	1693.67
986.04	1552.36
986.20	1589.22
986.37	1689.57
986.53	1605.61
986.69	1675.24
986.85	1570.79
987.01	1640.42
987.17	1675.24
987.33	1683.43
987.49	1583.08
987.65	1650.66
987.82	1621.99
987.98	1583.08
988.14	1642.47
988.30	1638.38
988.46	1581.03
988.62	1638.38
988.78	1638.38
988.94	1609.70
989.10	1599.46
989.26	1576.94
989.42	1611.75
989.59	1568.74
989.75	1576.94
989.91	1714.15
990.07	1562.60
990.23	1634.28
990.39	1566.70
990.55	1621.99
990.71	1564.65
990.87	1589.22
991.03	1642.47
991.19	1492.97
991.35	1589.22
991.51	1630.18
991.67	1683.43
991.83	1617.90
992.00	1624.04
992.16	1656.81
992.32	1601.51
992.48	1638.38
992.64	1597.42
992.80	1683.43
992.96	1576.94
993.12	1654.76
993.28	1546.22
993.44	1560.55
993.60	1574.89
993.76	1581.03
993.92	1607.66
994.08	1617.90
994.24	1689.57
994.40	1583.08
994.56	1599.46
994.72	1576.94
994.88	1587.18
995.04	1634.28
995.20	1626.09
995.36	1677.29
995.52	1689.57
995.68	1675.24
995.84	1560.55
996.00	1714.15
996.16	1679.33
996.32	1566.70
996.48	1628.14
996.64	1716.20
996.80	1550.31
996.96	1624.04
997.12	1640.42
997.28	1560.55
997.44	1597.42
997.60	1650.66
997.76	1597.42
997.92	1654.76
998.08	1628.14
998.24	1486.83
998.40	1656.81
998.56	1662.95
998.72	1552.36
998.88	1583.08
999.04	1675.24
999.20	1665.00
999.36	1630.18
999.52	1763.30
999.68	1638.38
999.84	1708.01
1000.00	1675.24
1000.16	1648.61
1000.32	1583.08
1000.48	1804.26
1000.64	1607.66
1000.80	1628.14
1000.95	1617.90
1001.11	1677.29
1001.27	1531.88
1001.43	1693.67
1001.59	1581.03
1001.75	1636.33
1001.91	1585.13
1002.07	1667.05
1002.23	1587.18
1002.39	1525.74
1002.55	1662.95
1002.71	1566.70
1002.87	1554.41
1003.03	1609.70
1003.19	1615.85
1003.34	1708.01
1003.50	1695.72
1003.66	1738.73
1003.82	1687.53
1003.98	1572.84
1004.14	1630.18
1004.30	1601.51
1004.46	1538.02
1004.62	1589.22
1004.78	1685.48
1004.94	1630.18
1005.09	1628.14
1005.25	1644.52
1005.41	1601.51
1005.57	1640.42
1005.73	1669.09
1005.89	1634.28
1006.05	1638.38
1006.21	1574.89
1006.37	1535.98
1006.52	1597.42
1006.68	1480.68
1006.84	1712.10
1007.00	1687.53
1007.16	1609.70
1007.32	1626.09
1007.48	1613.80
1007.64	1650.66
1007.79	1640.42
1007.95	1560.55
1008.11	1714.15
1008.27	1607.66
1008.43	1632.23
1008.59	1556.46
1008.75	1665.00
1008.91	1619.94
1009.06	1574.89
1009.22	1722.34
1009.38	1591.27
1009.54	1605.61
1009.70	1564.65
1009.86	1619.94
1010.01	1626.09
1010.17	1556.46
1010.33	1589.22
1010.49	1578.98
1010.65	1673.19
1010.81	1574.89
1010.96	1685.48
1011.12	1527.78
1011.28	1583.08
1011.44	1675.24
1011.60	1601.51
1011.76	1611.75
1011.91	1744.87
1012.07	1593.32
1012.23	1617.90
1012.39	1525.74
1012.55	1587.18
1012.71	1644.52
1012.86	1593.32
1013.02	1621.99
1013.18	1591.27
1013.34	1613.80
1013.50	1699.81
1013.65	1581.03
1013.81	1544.17
1013.97	1570.79
1014.13	1613.80
1014.29	1609.70
1014.44	1658.85
1014.60	1607.66
1014.76	1609.70
1014.92	1585.13
1015.07	1642.47
1015.23	1658.85
1015.39	1589.22
1015.55	1556.46
1015.71	1566.70
1015.86	1609.70
1016.02	1593.32
1016.18	1501.16
1016.34	1652.71
1016.49	1566.70
1016.65	1630.18
1016.81	1572.84
1016.97	1617.90
1017.12	1626.09
1017.28	1613.80
1017.44	1538.02
1017.60	1507.30
1017.75	1619.94
1017.91	1603.56
1018.07	1581.03
1018.23	1634.28
1018.38	1591.27
1018.54	1591.27
1018.70	1597.42
1018.86	1589.22
1019.01	1597.42
1019.17	1558.50
1019.33	1712.10
1019.49	1552.36
1019.64	1603.56
1019.80	1644.52
1019.96	1683.43
1020.12	1591.27
1020.27	1632.23
1020.43	1599.46
1020.59	1630.18
1020.74	1609.70
1020.90	1628.14
1021.06	1626.09
1021.22	1632.23
1021.37	1675.24
1021.53	1583.08
1021.69	1621.99
1021.84	1535.98
1022.00	1578.98
1022.16	1585.13
1022.31	1660.90
1022.47	1691.62
1022.63	1636.33
1022.79	1552.36
1022.94	1591.27
1023.10	1773.54
1023.26	1568.74
1023.41	1542.12
1023.57	1624.04
1023.73	1656.81
1023.88	1650.66
1024.04	1576.94
1024.20	1578.98
1024.35	1619.94
1024.51	1654.76
1024.67	1621.99
1024.82	1621.99
1024.98	1525.74
1025.14	1673.19
1025.29	1564.65
1025.45	1753.06
1025.61	1558.50
1025.76	1599.46
1025.92	1587.18
1026.08	1662.95
1026.23	1716.20
1026.39	1642.47
1026.55	1578.98
1026.70	1529.83
1026.86	1697.77
1027.02	1607.66
1027.17	1611.75
1027.33	1568.74
1027.48	1587.18
1027.64	1667.05
1027.80	1601.51
1027.95	1634.28
1028.11	1464.30
1028.27	1691.62
1028.42	1652.71
1028.58	1593.32
1028.73	1634.28
1028.89	1517.54
1029.05	1699.81
1029.20	1724.39
>>>>>End Processed Spectral Data<<<<<
