SpectraSuite Data File
++++++++++++++++++++++++++++++++++++
Date: Fri Jun 02 14:57:16 CEST 2017
User: INFO_000
Dark Spectrum Present: No
Reference Spectrum Present: No
Number of Sampled Component Spectra: 1
Spectrometers: USB4H00879
Integration Time (usec): 80000 (USB4H00879)
Spectra Averaged: 1 (USB4H00879)
Boxcar Smoothing: 0 (USB4H00879)
Correct for Electrical Dark: No (USB4H00879)
Strobe/Lamp Enabled: No (USB4H00879)
Correct for Detector Non-linearity: No (USB4H00879)
Correct for Stray Light: No (USB4H00879)
Number of Pixels in Processed Spectrum: 3648
>>>>>Begin Processed Spectral Data<<<<<
345.13	1257.45
345.34	1257.45
345.56	1257.45
345.78	1329.13
345.99	1269.74
346.21	1744.87
346.42	1652.71
346.64	1632.23
346.86	1775.59
347.07	1695.72
347.29	1740.77
347.50	1648.61
347.72	1697.77
347.94	1736.68
348.15	1603.56
348.37	1570.79
348.59	1617.90
348.80	1624.04
349.02	1703.91
349.23	1787.88
349.45	1720.29
349.67	1748.97
349.88	1708.01
350.10	1898.47
350.31	1656.81
350.53	1771.49
350.75	1863.65
350.96	1677.29
351.18	1787.88
351.39	1796.07
351.61	1679.33
351.82	1787.88
352.04	1753.06
352.26	1648.61
352.47	1785.83
352.69	1779.68
352.90	1642.47
353.12	1679.33
353.34	1728.49
353.55	1769.44
353.77	1691.62
353.98	1724.39
354.20	1724.39
354.41	1781.73
354.63	1710.05
354.85	1896.42
355.06	1742.82
355.28	1615.85
355.49	1728.49
355.71	1726.44
355.92	1736.68
356.14	1763.30
356.35	1699.81
356.57	1714.15
356.79	1798.12
357.00	1646.57
357.22	1789.92
357.43	1634.28
357.65	1781.73
357.86	1660.90
358.08	1701.86
358.29	1767.40
358.51	1748.97
358.72	1691.62
358.94	1689.57
359.16	1691.62
359.37	1757.16
359.59	1744.87
359.80	1744.87
360.02	1714.15
360.23	1712.10
360.45	1740.77
360.66	1660.90
360.88	1628.14
361.09	1683.43
361.31	1746.92
361.52	1677.29
361.74	1755.11
361.95	1761.25
362.17	1732.58
362.38	1814.50
362.60	1789.92
362.81	1722.34
363.03	1665.00
363.24	1673.19
363.46	1806.31
363.67	1746.92
363.89	1740.77
364.10	1751.01
364.32	1675.24
364.53	1744.87
364.75	1626.09
364.96	1722.34
365.18	1724.39
365.39	1705.96
365.61	1603.56
365.82	1820.64
366.04	1642.47
366.25	1687.53
366.47	1701.86
366.68	1740.77
366.90	1609.70
367.11	1759.21
367.33	1716.20
367.54	1765.35
367.76	1712.10
367.97	1720.29
368.19	1744.87
368.40	1843.17
368.62	1619.94
368.83	1621.99
369.05	1732.58
369.26	1675.24
369.48	1599.46
369.69	1644.52
369.91	1689.57
370.12	1714.15
370.33	1785.83
370.55	1619.94
370.76	1685.48
370.98	1716.20
371.19	1720.29
371.41	1675.24
371.62	1705.96
371.84	1576.94
372.05	1816.55
372.27	1693.67
372.48	1683.43
372.69	1669.09
372.91	1730.53
373.12	1746.92
373.34	1679.33
373.55	1720.29
373.77	1794.02
373.98	1732.58
374.20	1732.58
374.41	1783.78
374.62	1724.39
374.84	1687.53
375.05	1703.91
375.27	1722.34
375.48	1728.49
375.70	1646.57
375.91	1744.87
376.12	1843.17
376.34	1689.57
376.55	1669.09
376.77	1775.59
376.98	1656.81
377.19	1650.66
377.41	1671.14
377.62	1767.40
377.84	1701.86
378.05	1839.08
378.27	1726.44
378.48	1873.89
378.69	1808.36
378.91	1882.08
379.12	1689.57
379.34	1734.63
379.55	1773.54
379.76	1746.92
379.98	1691.62
380.19	1714.15
380.41	1693.67
380.62	1738.73
380.83	1730.53
381.05	1591.27
381.26	1765.35
381.47	1716.20
381.69	1646.57
381.90	1869.80
382.12	1724.39
382.33	1716.20
382.54	1634.28
382.76	1705.96
382.97	1712.10
383.19	1599.46
383.40	1695.72
383.61	1710.05
383.83	1599.46
384.04	1675.24
384.25	1734.63
384.47	1746.92
384.68	1703.91
384.89	1648.61
385.11	1716.20
385.32	1652.71
385.54	1705.96
385.75	1722.34
385.96	1726.44
386.18	1619.94
386.39	1697.77
386.60	1726.44
386.82	1667.05
387.03	1677.29
387.24	1783.78
387.46	1742.82
387.67	1726.44
387.88	1761.25
388.10	1708.01
388.31	1689.57
388.52	1740.77
388.74	1697.77
388.95	1730.53
389.16	1695.72
389.38	1662.95
389.59	1798.12
389.80	1744.87
390.02	1669.09
390.23	1742.82
390.44	1667.05
390.66	1683.43
390.87	1650.66
391.08	1757.16
391.30	1802.21
391.51	1761.25
391.72	1744.87
391.94	1726.44
392.15	1720.29
392.36	1644.52
392.58	1718.25
392.79	1679.33
393.00	1697.77
393.22	1773.54
393.43	1781.73
393.64	1708.01
393.85	1781.73
394.07	1628.14
394.28	1646.57
394.49	1644.52
394.71	1673.19
394.92	1759.21
395.13	1689.57
395.35	1677.29
395.56	1660.90
395.77	1730.53
395.98	1667.05
396.20	1746.92
396.41	1683.43
396.62	1714.15
396.84	1611.75
397.05	1634.28
397.26	1724.39
397.47	1796.07
397.69	1644.52
397.90	1884.13
398.11	1687.53
398.32	1669.09
398.54	1667.05
398.75	1679.33
398.96	1699.81
399.18	1855.46
399.39	1611.75
399.60	1714.15
399.81	1720.29
400.03	1654.76
400.24	1935.33
400.45	1736.68
400.66	1773.54
400.88	1658.85
401.09	1943.52
401.30	1712.10
401.51	1736.68
401.73	1785.83
401.94	1728.49
402.15	1652.71
402.36	1761.25
402.58	1781.73
402.79	1765.35
403.00	1716.20
403.21	1775.59
403.43	1728.49
403.64	1775.59
403.85	1626.09
404.06	1822.69
404.27	1626.09
404.49	1779.68
404.70	1708.01
404.91	1808.36
405.12	1753.06
405.34	1728.49
405.55	1857.51
405.76	1617.90
405.97	1720.29
406.19	1806.31
406.40	1544.17
406.61	1744.87
406.82	1583.08
407.03	1712.10
407.25	1642.47
407.46	1728.49
407.67	1765.35
407.88	1892.32
408.09	1691.62
408.31	1699.81
408.52	1761.25
408.73	1642.47
408.94	1662.95
409.15	1691.62
409.37	1757.16
409.58	1699.81
409.79	1773.54
410.00	1837.03
410.21	1671.14
410.43	1736.68
410.64	1699.81
410.85	1802.21
411.06	1665.00
411.27	1769.44
411.48	1730.53
411.70	1785.83
411.91	1695.72
412.12	1757.16
412.33	1812.45
412.54	1769.44
412.76	1675.24
412.97	1781.73
413.18	1673.19
413.39	1718.25
413.60	1765.35
413.81	1732.58
414.03	1634.28
414.24	1621.99
414.45	1830.88
414.66	1626.09
414.87	1714.15
415.08	1703.91
415.30	1699.81
415.51	1748.97
415.72	1771.49
415.93	1732.58
416.14	1761.25
416.35	1710.05
416.56	1732.58
416.78	1777.64
416.99	1693.67
417.20	1744.87
417.41	1699.81
417.62	1718.25
417.83	1748.97
418.04	1699.81
418.26	1810.40
418.47	1757.16
418.68	1769.44
418.89	1755.11
419.10	1861.60
419.31	1687.53
419.52	1693.67
419.73	1732.58
419.95	1773.54
420.16	1699.81
420.37	1769.44
420.58	1777.64
420.79	1615.85
421.00	1716.20
421.21	1638.38
421.42	1695.72
421.63	1746.92
421.85	1658.85
422.06	1675.24
422.27	1683.43
422.48	1718.25
422.69	1576.94
422.90	1658.85
423.11	1667.05
423.32	1832.93
423.53	1802.21
423.75	1632.23
423.96	1849.32
424.17	1800.16
424.38	1796.07
424.59	1624.04
424.80	1671.14
425.01	1697.77
425.22	1576.94
425.43	1720.29
425.64	1748.97
425.85	1765.35
426.06	1845.22
426.28	1771.49
426.49	1597.42
426.70	1644.52
426.91	1607.66
427.12	1738.73
427.33	1648.61
427.54	1740.77
427.75	1669.09
427.96	1691.62
428.17	1759.21
428.38	1660.90
428.59	1765.35
428.80	1708.01
429.01	1728.49
429.23	1767.40
429.44	1644.52
429.65	1742.82
429.86	1708.01
430.07	1628.14
430.28	1630.18
430.49	1669.09
430.70	1759.21
430.91	1824.74
431.12	1621.99
431.33	1695.72
431.54	1730.53
431.75	1734.63
431.96	1613.80
432.17	1730.53
432.38	1755.11
432.59	1777.64
432.80	1765.35
433.01	1693.67
433.22	1742.82
433.43	1740.77
433.64	1744.87
433.85	1761.25
434.06	1759.21
434.27	1572.84
434.49	1681.38
434.70	1789.92
434.91	1703.91
435.12	1656.81
435.33	1665.00
435.54	1681.38
435.75	1630.18
435.96	1677.29
436.17	1632.23
436.38	1763.30
436.59	1753.06
436.80	1697.77
437.01	1781.73
437.22	1744.87
437.43	1761.25
437.64	1710.05
437.85	1716.20
438.06	1755.11
438.27	1640.42
438.48	1675.24
438.69	1777.64
438.90	1656.81
439.11	1673.19
439.32	1779.68
439.53	1640.42
439.74	1617.90
439.95	1656.81
440.16	1714.15
440.37	1771.49
440.57	1599.46
440.78	1767.40
440.99	1732.58
441.20	1669.09
441.41	1605.61
441.62	1691.62
441.83	1599.46
442.04	1693.67
442.25	1640.42
442.46	1558.50
442.67	1613.80
442.88	1791.97
443.09	1673.19
443.30	1624.04
443.51	1669.09
443.72	1673.19
443.93	1705.96
444.14	1859.56
444.35	1617.90
444.56	1691.62
444.77	1650.66
444.98	1759.21
445.19	1728.49
445.40	1673.19
445.61	1671.14
445.81	1667.05
446.02	1810.40
446.23	1738.73
446.44	1628.14
446.65	1740.77
446.86	1716.20
447.07	1834.98
447.28	1662.95
447.49	1755.11
447.70	1687.53
447.91	1724.39
448.12	1638.38
448.33	1703.91
448.54	1710.05
448.74	1632.23
448.95	1701.86
449.16	1720.29
449.37	1789.92
449.58	1775.59
449.79	1718.25
450.00	1728.49
450.21	1648.61
450.42	1671.14
450.63	1767.40
450.84	1724.39
451.05	1751.01
451.25	1624.04
451.46	1593.32
451.67	1787.88
451.88	1695.72
452.09	1718.25
452.30	1597.42
452.51	1644.52
452.72	1769.44
452.93	1806.31
453.13	1687.53
453.34	1634.28
453.55	1695.72
453.76	1642.47
453.97	1705.96
454.18	1665.00
454.39	1722.34
454.60	1675.24
454.81	1705.96
455.01	1761.25
455.22	1650.66
455.43	1699.81
455.64	1699.81
455.85	1708.01
456.06	1642.47
456.27	1808.36
456.48	1642.47
456.68	1660.90
456.89	1802.21
457.10	1740.77
457.31	1687.53
457.52	1697.77
457.73	1632.23
457.94	1683.43
458.14	1656.81
458.35	1640.42
458.56	1685.48
458.77	1669.09
458.98	1724.39
459.19	1679.33
459.39	1736.68
459.60	1685.48
459.81	1632.23
460.02	1781.73
460.23	1710.05
460.44	1591.27
460.65	1705.96
460.85	1681.38
461.06	1617.90
461.27	1665.00
461.48	1687.53
461.69	1593.32
461.89	1568.74
462.10	1640.42
462.31	1615.85
462.52	1609.70
462.73	1658.85
462.94	1720.29
463.14	1634.28
463.35	1646.57
463.56	1808.36
463.77	1705.96
463.98	1611.75
464.18	1697.77
464.39	1763.30
464.60	1748.97
464.81	1611.75
465.02	1693.67
465.23	1761.25
465.43	1701.86
465.64	1634.28
465.85	1716.20
466.06	1673.19
466.27	1689.57
466.47	1679.33
466.68	1796.07
466.89	1720.29
467.10	1626.09
467.30	1617.90
467.51	1712.10
467.72	1820.64
467.93	1609.70
468.14	1609.70
468.34	1757.16
468.55	1644.52
468.76	1800.16
468.97	1740.77
469.17	1701.86
469.38	1722.34
469.59	1734.63
469.80	1748.97
470.01	1728.49
470.21	1714.15
470.42	1615.85
470.63	1773.54
470.84	1716.20
471.04	1636.33
471.25	1892.32
471.46	1681.38
471.67	1834.98
471.87	1685.48
472.08	1708.01
472.29	1679.33
472.50	1697.77
472.70	1671.14
472.91	1605.61
473.12	1609.70
473.33	1675.24
473.53	1806.31
473.74	1585.13
473.95	1677.29
474.16	1673.19
474.36	1613.80
474.57	1798.12
474.78	1679.33
474.99	1740.77
475.19	1746.92
475.40	1773.54
475.61	1794.02
475.81	1708.01
476.02	1656.81
476.23	1720.29
476.44	1712.10
476.64	1638.38
476.85	1609.70
477.06	1718.25
477.27	1671.14
477.47	1697.77
477.68	1667.05
477.89	1691.62
478.09	1777.64
478.30	1708.01
478.51	1642.47
478.71	1673.19
478.92	1744.87
479.13	1699.81
479.34	1621.99
479.54	1656.81
479.75	1695.72
479.96	1677.29
480.16	1660.90
480.37	1667.05
480.58	1701.86
480.78	1740.77
480.99	1642.47
481.20	1693.67
481.41	1726.44
481.61	1777.64
481.82	1834.98
482.03	1644.52
482.23	1638.38
482.44	1701.86
482.65	1808.36
482.85	1736.68
483.06	1679.33
483.27	1757.16
483.47	1722.34
483.68	1703.91
483.89	1765.35
484.09	1740.77
484.30	1687.53
484.51	1755.11
484.71	1648.61
484.92	1615.85
485.13	1687.53
485.33	1667.05
485.54	1624.04
485.75	1785.83
485.95	1753.06
486.16	1640.42
486.37	1710.05
486.57	1613.80
486.78	1662.95
486.98	1691.62
487.19	1636.33
487.40	1718.25
487.60	1669.09
487.81	1720.29
488.02	1597.42
488.22	1578.98
488.43	1724.39
488.64	1712.10
488.84	1693.67
489.05	1748.97
489.25	1679.33
489.46	1746.92
489.67	1683.43
489.87	1779.68
490.08	1685.48
490.29	1675.24
490.49	1781.73
490.70	1726.44
490.90	1718.25
491.11	1677.29
491.32	1777.64
491.52	1722.34
491.73	1665.00
491.94	1617.90
492.14	1609.70
492.35	1687.53
492.55	1826.79
492.76	1689.57
492.97	1677.29
493.17	1679.33
493.38	1720.29
493.58	1765.35
493.79	1646.57
494.00	1683.43
494.20	1642.47
494.41	1779.68
494.61	1742.82
494.82	1683.43
495.02	1681.38
495.23	1695.72
495.44	1724.39
495.64	1769.44
495.85	1720.29
496.05	1642.47
496.26	1724.39
496.47	1677.29
496.67	1695.72
496.88	1785.83
497.08	1597.42
497.29	1624.04
497.49	1763.30
497.70	1689.57
497.91	1679.33
498.11	1736.68
498.32	1734.63
498.52	1732.58
498.73	1798.12
498.93	1691.62
499.14	1771.49
499.34	1814.50
499.55	1753.06
499.76	1695.72
499.96	1748.97
500.17	1656.81
500.37	1724.39
500.58	1710.05
500.78	1710.05
500.99	1669.09
501.19	1634.28
501.40	1738.73
501.60	1638.38
501.81	1720.29
502.02	1726.44
502.22	1630.18
502.43	1705.96
502.63	1845.22
502.84	1759.21
503.04	1755.11
503.25	1787.88
503.45	1722.34
503.66	1693.67
503.86	1742.82
504.07	1851.36
504.27	1691.62
504.48	1665.00
504.68	1640.42
504.89	1820.64
505.09	1605.61
505.30	1669.09
505.50	1736.68
505.71	1677.29
505.91	1751.01
506.12	1748.97
506.32	1701.86
506.53	1624.04
506.73	1779.68
506.94	1673.19
507.14	1632.23
507.35	1769.44
507.55	1673.19
507.76	1671.14
507.96	1730.53
508.17	1777.64
508.37	1599.46
508.58	1828.84
508.78	1736.68
508.99	1791.97
509.19	1802.21
509.40	1650.66
509.60	1648.61
509.81	1728.49
510.01	1660.90
510.22	1660.90
510.42	1761.25
510.63	1779.68
510.83	1638.38
511.04	1679.33
511.24	1744.87
511.44	1708.01
511.65	1671.14
511.85	1726.44
512.06	1712.10
512.26	1710.05
512.47	1804.26
512.67	1626.09
512.88	1820.64
513.08	1675.24
513.29	1748.97
513.49	1650.66
513.69	1703.91
513.90	1695.72
514.10	1683.43
514.31	1691.62
514.51	1644.52
514.72	1683.43
514.92	1828.84
515.13	1679.33
515.33	1681.38
515.53	1673.19
515.74	1771.49
515.94	1753.06
516.15	1740.77
516.35	1585.13
516.56	1599.46
516.76	1626.09
516.96	1679.33
517.17	1687.53
517.37	1808.36
517.58	1624.04
517.78	1687.53
517.99	1810.40
518.19	1767.40
518.39	1714.15
518.60	1759.21
518.80	1683.43
519.01	1779.68
519.21	1665.00
519.41	1730.53
519.62	1585.13
519.82	1703.91
520.03	1685.48
520.23	1693.67
520.43	1644.52
520.64	1767.40
520.84	1785.83
521.05	1673.19
521.25	1712.10
521.45	1710.05
521.66	1705.96
521.86	1738.73
522.07	1746.92
522.27	1581.03
522.47	1574.89
522.68	1714.15
522.88	1763.30
523.08	1759.21
523.29	1546.22
523.49	1628.14
523.70	1636.33
523.90	1644.52
524.10	1667.05
524.31	1681.38
524.51	1556.46
524.71	1775.59
524.92	1675.24
525.12	1593.32
525.33	1744.87
525.53	1687.53
525.73	1783.78
525.94	1648.61
526.14	1732.58
526.34	1753.06
526.55	1675.24
526.75	1660.90
526.95	1802.21
527.16	1644.52
527.36	1697.77
527.56	1769.44
527.77	1624.04
527.97	1691.62
528.17	1738.73
528.38	1712.10
528.58	1720.29
528.78	1636.33
528.99	1701.86
529.19	1683.43
529.39	1646.57
529.60	1656.81
529.80	1665.00
530.00	1658.85
530.21	1703.91
530.41	1689.57
530.61	1650.66
530.82	1740.77
531.02	1675.24
531.22	1671.14
531.43	1718.25
531.63	1720.29
531.83	1699.81
532.04	1771.49
532.24	1687.53
532.44	1621.99
532.64	1658.85
532.85	1675.24
533.05	1703.91
533.25	1665.00
533.46	1624.04
533.66	1722.34
533.86	1716.20
534.07	1787.88
534.27	1654.76
534.47	1773.54
534.67	1724.39
534.88	1601.51
535.08	1716.20
535.28	1757.16
535.49	1652.71
535.69	1759.21
535.89	1771.49
536.09	1871.84
536.30	1728.49
536.50	1699.81
536.70	1777.64
536.91	1617.90
537.11	1757.16
537.31	1683.43
537.51	1699.81
537.72	1748.97
537.92	1720.29
538.12	1767.40
538.32	1689.57
538.53	1640.42
538.73	1673.19
538.93	1667.05
539.13	1726.44
539.34	1691.62
539.54	1613.80
539.74	1654.76
539.94	1617.90
540.15	1769.44
540.35	1748.97
540.55	1609.70
540.75	1654.76
540.96	1701.86
541.16	1624.04
541.36	1644.52
541.56	1716.20
541.77	1705.96
541.97	1755.11
542.17	1642.47
542.37	1791.97
542.58	1748.97
542.78	1798.12
542.98	1748.97
543.18	1640.42
543.38	1740.77
543.59	1705.96
543.79	1640.42
543.99	1738.73
544.19	1673.19
544.40	1712.10
544.60	1667.05
544.80	1728.49
545.00	1669.09
545.20	1736.68
545.41	1628.14
545.61	1644.52
545.81	1720.29
546.01	1681.38
546.21	1662.95
546.42	1689.57
546.62	1738.73
546.82	1667.05
547.02	1703.91
547.22	1675.24
547.43	1798.12
547.63	1693.67
547.83	1689.57
548.03	1644.52
548.23	1781.73
548.44	1685.48
548.64	1742.82
548.84	1722.34
549.04	1654.76
549.24	1773.54
549.45	1916.90
549.65	1607.66
549.85	1679.33
550.05	1667.05
550.25	1593.32
550.45	1730.53
550.66	1751.01
550.86	1609.70
551.06	1714.15
551.26	1656.81
551.46	1691.62
551.66	1667.05
551.87	1624.04
552.07	1693.67
552.27	1738.73
552.47	1753.06
552.67	1724.39
552.87	1701.86
553.07	1697.77
553.28	1667.05
553.48	1724.39
553.68	1712.10
553.88	1826.79
554.08	1667.05
554.28	1708.01
554.48	1677.29
554.69	1708.01
554.89	1656.81
555.09	1654.76
555.29	1574.89
555.49	1728.49
555.69	1812.45
555.89	1738.73
556.10	1738.73
556.30	1683.43
556.50	1736.68
556.70	1726.44
556.90	1687.53
557.10	1716.20
557.30	1673.19
557.50	1642.47
557.70	1644.52
557.91	1605.61
558.11	1718.25
558.31	1753.06
558.51	1718.25
558.71	1740.77
558.91	1699.81
559.11	1605.61
559.31	1617.90
559.51	1716.20
559.72	1781.73
559.92	1650.66
560.12	1687.53
560.32	1765.35
560.52	1736.68
560.72	1662.95
560.92	1771.49
561.12	1781.73
561.32	1667.05
561.52	1581.03
561.72	1814.50
561.93	1730.53
562.13	1607.66
562.33	1689.57
562.53	1755.11
562.73	1732.58
562.93	1685.48
563.13	1742.82
563.33	1787.88
563.53	1763.30
563.73	1734.63
563.93	1728.49
564.13	1757.16
564.33	1810.40
564.53	1687.53
564.74	1613.80
564.94	1720.29
565.14	1748.97
565.34	1716.20
565.54	1703.91
565.74	1660.90
565.94	1748.97
566.14	1705.96
566.34	1648.61
566.54	1695.72
566.74	1652.71
566.94	1673.19
567.14	1673.19
567.34	1654.76
567.54	1728.49
567.74	1777.64
567.94	1658.85
568.14	1656.81
568.34	1888.23
568.54	1687.53
568.74	1748.97
568.94	1804.26
569.14	1830.88
569.34	1689.57
569.54	1656.81
569.75	1646.57
569.95	1683.43
570.15	1773.54
570.35	1736.68
570.55	1667.05
570.75	1781.73
570.95	1722.34
571.15	1771.49
571.35	1759.21
571.55	1683.43
571.75	1746.92
571.95	1757.16
572.15	1712.10
572.35	1697.77
572.55	1673.19
572.75	1697.77
572.95	1601.51
573.15	1726.44
573.35	1757.16
573.55	1714.15
573.75	1679.33
573.95	1826.79
574.15	1716.20
574.35	1677.29
574.55	1640.42
574.75	1654.76
574.95	1777.64
575.15	1658.85
575.34	1675.24
575.54	1705.96
575.74	1650.66
575.94	1742.82
576.14	1677.29
576.34	1695.72
576.54	1687.53
576.74	1806.31
576.94	1634.28
577.14	1748.97
577.34	1714.15
577.54	1632.23
577.74	1644.52
577.94	1771.49
578.14	1708.01
578.34	1718.25
578.54	1595.37
578.74	1652.71
578.94	1701.86
579.14	1755.11
579.34	1601.51
579.54	1730.53
579.74	1673.19
579.94	1714.15
580.13	1771.49
580.33	1654.76
580.53	1656.81
580.73	1710.05
580.93	1716.20
581.13	1667.05
581.33	1687.53
581.53	1714.15
581.73	1751.01
581.93	1687.53
582.13	1712.10
582.33	1732.58
582.53	1658.85
582.73	1714.15
582.92	1628.14
583.12	1699.81
583.32	1658.85
583.52	1740.77
583.72	1824.74
583.92	1761.25
584.12	1705.96
584.32	1748.97
584.52	1605.61
584.72	1691.62
584.92	1753.06
585.11	1658.85
585.31	1693.67
585.51	1685.48
585.71	1740.77
585.91	1841.12
586.11	1755.11
586.31	1691.62
586.51	1677.29
586.71	1716.20
586.91	1634.28
587.10	1720.29
587.30	1761.25
587.50	1603.56
587.70	1652.71
587.90	1708.01
588.10	1640.42
588.30	1681.38
588.50	1730.53
588.69	1699.81
588.89	1738.73
589.09	1687.53
589.29	1646.57
589.49	1656.81
589.69	1642.47
589.89	1755.11
590.08	1724.39
590.28	1621.99
590.48	1724.39
590.68	1781.73
590.88	1636.33
591.08	1677.29
591.28	1722.34
591.47	1728.49
591.67	1624.04
591.87	1755.11
592.07	1785.83
592.27	1638.38
592.47	1638.38
592.67	1753.06
592.86	1654.76
593.06	1656.81
593.26	1828.84
593.46	1738.73
593.66	1576.94
593.86	1765.35
594.05	1789.92
594.25	1673.19
594.45	1708.01
594.65	1888.23
594.85	1794.02
595.05	1685.48
595.24	1679.33
595.44	1703.91
595.64	1679.33
595.84	1740.77
596.04	1759.21
596.23	1757.16
596.43	1773.54
596.63	1724.39
596.83	1656.81
597.03	1769.44
597.22	1675.24
597.42	1775.59
597.62	1734.63
597.82	1744.87
598.02	1753.06
598.21	1599.46
598.41	1703.91
598.61	1753.06
598.81	1718.25
599.01	1673.19
599.20	1748.97
599.40	1662.95
599.60	1687.53
599.80	1673.19
600.00	1789.92
600.19	1724.39
600.39	1634.28
600.59	1718.25
600.79	1773.54
600.98	1751.01
601.18	1757.16
601.38	1751.01
601.58	1693.67
601.78	1734.63
601.97	1781.73
602.17	1654.76
602.37	1669.09
602.57	1761.25
602.76	1667.05
602.96	1638.38
603.16	1675.24
603.36	1732.58
603.55	1705.96
603.75	1677.29
603.95	1767.40
604.15	1734.63
604.34	1662.95
604.54	1621.99
604.74	1794.02
604.94	1734.63
605.13	1658.85
605.33	1597.42
605.53	1685.48
605.73	1773.54
605.92	1667.05
606.12	1683.43
606.32	1763.30
606.52	1789.92
606.71	1705.96
606.91	1693.67
607.11	1689.57
607.30	1730.53
607.50	1769.44
607.70	1787.88
607.90	1667.05
608.09	1691.62
608.29	1689.57
608.49	1751.01
608.68	1744.87
608.88	1691.62
609.08	1648.61
609.28	1767.40
609.47	1634.28
609.67	1718.25
609.87	1765.35
610.06	1794.02
610.26	1701.86
610.46	1816.55
610.66	1650.66
610.85	1621.99
611.05	1777.64
611.25	1740.77
611.44	1607.66
611.64	1656.81
611.84	1738.73
612.03	1744.87
612.23	1761.25
612.43	1753.06
612.62	1796.07
612.82	1822.69
613.02	1753.06
613.21	1763.30
613.41	1734.63
613.61	1681.38
613.80	1687.53
614.00	1691.62
614.20	1853.41
614.39	1816.55
614.59	1746.92
614.79	1673.19
614.98	1730.53
615.18	1794.02
615.38	1665.00
615.57	1662.95
615.77	1845.22
615.97	1642.47
616.16	1718.25
616.36	1748.97
616.56	1791.97
616.75	1699.81
616.95	1628.14
617.15	1773.54
617.34	1652.71
617.54	1777.64
617.74	1804.26
617.93	1832.93
618.13	1726.44
618.32	1646.57
618.52	1759.21
618.72	1720.29
618.91	1763.30
619.11	1730.53
619.31	1720.29
619.50	1671.14
619.70	1734.63
619.90	1673.19
620.09	1716.20
620.29	1675.24
620.48	1828.84
620.68	1761.25
620.88	1705.96
621.07	1775.59
621.27	1726.44
621.46	1761.25
621.66	1785.83
621.86	1824.74
622.05	1716.20
622.25	1800.16
622.44	1667.05
622.64	1671.14
622.84	1779.68
623.03	1691.62
623.23	1689.57
623.42	1689.57
623.62	1839.08
623.82	1810.40
624.01	1763.30
624.21	1783.78
624.40	1841.12
624.60	1714.15
624.80	1689.57
624.99	1753.06
625.19	1783.78
625.38	1783.78
625.58	1742.82
625.77	1742.82
625.97	1826.79
626.17	1701.86
626.36	1660.90
626.56	1773.54
626.75	1644.52
626.95	1767.40
627.14	1816.55
627.34	1734.63
627.54	1834.98
627.73	1787.88
627.93	1783.78
628.12	1718.25
628.32	1763.30
628.51	1667.05
628.71	1740.77
628.90	1769.44
629.10	1662.95
629.30	1761.25
629.49	1769.44
629.69	1630.18
629.88	1628.14
630.08	1798.12
630.27	1859.56
630.47	1726.44
630.66	1685.48
630.86	1753.06
631.05	1658.85
631.25	1705.96
631.44	1763.30
631.64	1642.47
631.84	1722.34
632.03	1748.97
632.23	1687.53
632.42	1746.92
632.62	1636.33
632.81	1712.10
633.01	1738.73
633.20	1873.89
633.40	1798.12
633.59	1703.91
633.79	1748.97
633.98	1759.21
634.18	1740.77
634.37	1802.21
634.57	1753.06
634.76	1667.05
634.96	1804.26
635.15	1857.51
635.35	1746.92
635.54	1769.44
635.74	1689.57
635.93	1626.09
636.13	1675.24
636.32	1738.73
636.52	1777.64
636.71	1716.20
636.91	1763.30
637.10	1798.12
637.30	1681.38
637.49	1718.25
637.69	1843.17
637.88	1740.77
638.08	1701.86
638.27	1763.30
638.46	1671.14
638.66	1710.05
638.85	1687.53
639.05	1763.30
639.24	1830.88
639.44	1740.77
639.63	1806.31
639.83	1789.92
640.02	1675.24
640.22	1716.20
640.41	1720.29
640.61	1701.86
640.80	1744.87
640.99	1732.58
641.19	1832.93
641.38	1828.84
641.58	1658.85
641.77	1759.21
641.97	1574.89
642.16	1632.23
642.36	1720.29
642.55	1740.77
642.74	1818.60
642.94	1689.57
643.13	1640.42
643.33	1777.64
643.52	1755.11
643.72	1751.01
643.91	1695.72
644.10	1794.02
644.30	1722.34
644.49	1773.54
644.69	1712.10
644.88	1671.14
645.08	1740.77
645.27	1765.35
645.46	1681.38
645.66	1759.21
645.85	1724.39
646.05	1675.24
646.24	1617.90
646.43	1683.43
646.63	1802.21
646.82	1785.83
647.02	1726.44
647.21	1810.40
647.40	1728.49
647.60	1611.75
647.79	1865.70
647.99	1722.34
648.18	1763.30
648.37	1845.22
648.57	1728.49
648.76	1658.85
648.96	1660.90
649.15	1693.67
649.34	1869.80
649.54	1802.21
649.73	1697.77
649.92	1699.81
650.12	1718.25
650.31	1703.91
650.51	1959.91
650.70	1785.83
650.89	1765.35
651.09	1777.64
651.28	1710.05
651.47	1646.57
651.67	1789.92
651.86	1779.68
652.06	1667.05
652.25	1773.54
652.44	1615.85
652.64	1785.83
652.83	1708.01
653.02	1742.82
653.22	1781.73
653.41	1613.80
653.60	1695.72
653.80	1636.33
653.99	1763.30
654.18	1671.14
654.38	1712.10
654.57	1814.50
654.76	1775.59
654.96	1779.68
655.15	1630.18
655.34	1728.49
655.54	1677.29
655.73	1732.58
655.92	1744.87
656.12	1683.43
656.31	1814.50
656.50	1814.50
656.70	1763.30
656.89	1640.42
657.08	1613.80
657.28	1822.69
657.47	1708.01
657.66	1765.35
657.86	1746.92
658.05	1822.69
658.24	1814.50
658.43	1781.73
658.63	1611.75
658.82	1777.64
659.01	1730.53
659.21	1812.45
659.40	1683.43
659.59	1773.54
659.79	1716.20
659.98	1806.31
660.17	1769.44
660.36	1730.53
660.56	1771.49
660.75	1755.11
660.94	1697.77
661.14	1755.11
661.33	1679.33
661.52	1628.14
661.71	1820.64
661.91	1695.72
662.10	1755.11
662.29	1607.66
662.49	1695.72
662.68	1708.01
662.87	1708.01
663.06	1685.48
663.26	1765.35
663.45	1900.52
663.64	1683.43
663.83	1708.01
664.03	1781.73
664.22	1744.87
664.41	1861.60
664.60	1796.07
664.80	1687.53
664.99	1802.21
665.18	1806.31
665.37	1669.09
665.57	1791.97
665.76	1699.81
665.95	1673.19
666.14	1724.39
666.34	1742.82
666.53	1675.24
666.72	1650.66
666.91	1679.33
667.11	1746.92
667.30	1771.49
667.49	1798.12
667.68	1871.84
667.87	1765.35
668.07	1777.64
668.26	1675.24
668.45	1675.24
668.64	1726.44
668.84	1826.79
669.03	1693.67
669.22	1834.98
669.41	1734.63
669.60	1669.09
669.80	1769.44
669.99	1771.49
670.18	1800.16
670.37	1748.97
670.57	1779.68
670.76	1759.21
670.95	1830.88
671.14	1714.15
671.33	1669.09
671.53	1806.31
671.72	1880.04
671.91	1755.11
672.10	1677.29
672.29	1773.54
672.48	1693.67
672.68	1699.81
672.87	1656.81
673.06	1716.20
673.25	1720.29
673.44	1761.25
673.64	1634.28
673.83	1716.20
674.02	1632.23
674.21	1824.74
674.40	1724.39
674.59	1658.85
674.79	1665.00
674.98	1773.54
675.17	1718.25
675.36	1619.94
675.55	1689.57
675.74	1753.06
675.94	1777.64
676.13	1789.92
676.32	1699.81
676.51	1716.20
676.70	1621.99
676.89	1693.67
677.08	1701.86
677.28	1849.32
677.47	1744.87
677.66	1732.58
677.85	1658.85
678.04	1761.25
678.23	1748.97
678.42	1714.15
678.62	1726.44
678.81	1673.19
679.00	1785.83
679.19	1787.88
679.38	1736.68
679.57	1683.43
679.76	1695.72
679.96	1708.01
680.15	1791.97
680.34	1693.67
680.53	1808.36
680.72	1738.73
680.91	1744.87
681.10	1699.81
681.29	1730.53
681.48	1781.73
681.68	1746.92
681.87	1855.46
682.06	1861.60
682.25	1820.64
682.44	1644.52
682.63	1894.37
682.82	1605.61
683.01	1834.98
683.20	1734.63
683.39	1849.32
683.59	1732.58
683.78	1710.05
683.97	1753.06
684.16	1634.28
684.35	1648.61
684.54	1757.16
684.73	1669.09
684.92	1691.62
685.11	1775.59
685.30	1732.58
685.49	1748.97
685.69	1740.77
685.88	1650.66
686.07	1669.09
686.26	1701.86
686.45	1687.53
686.64	1763.30
686.83	1775.59
687.02	1761.25
687.21	1822.69
687.40	1648.61
687.59	1892.32
687.78	1683.43
687.97	1755.11
688.16	1732.58
688.35	1681.38
688.54	1671.14
688.74	1548.26
688.93	1779.68
689.12	1703.91
689.31	1828.84
689.50	1867.75
689.69	1683.43
689.88	1718.25
690.07	1677.29
690.26	1765.35
690.45	1675.24
690.64	1691.62
690.83	1603.56
691.02	1748.97
691.21	1708.01
691.40	1732.58
691.59	1716.20
691.78	1734.63
691.97	1679.33
692.16	1728.49
692.35	1662.95
692.54	1761.25
692.73	1708.01
692.92	1779.68
693.11	1673.19
693.30	1804.26
693.49	1699.81
693.68	1779.68
693.87	1732.58
694.06	1644.52
694.25	1697.77
694.44	1703.91
694.63	1640.42
694.82	1667.05
695.01	1714.15
695.20	1736.68
695.39	1656.81
695.58	1662.95
695.77	1675.24
695.96	1767.40
696.15	1783.78
696.34	1628.14
696.53	1761.25
696.72	1728.49
696.91	1675.24
697.10	1765.35
697.29	1660.90
697.48	1851.36
697.67	1753.06
697.86	1705.96
698.05	1675.24
698.24	1791.97
698.43	1716.20
698.62	1765.35
698.81	1703.91
699.00	1839.08
699.19	1761.25
699.38	1650.66
699.57	1693.67
699.76	1732.58
699.95	1685.48
700.14	1724.39
700.32	1708.01
700.51	1687.53
700.70	1779.68
700.89	1894.37
701.08	1814.50
701.27	1693.67
701.46	1820.64
701.65	1703.91
701.84	1691.62
702.03	1640.42
702.22	1773.54
702.41	1746.92
702.60	1730.53
702.79	1683.43
702.98	1701.86
703.17	1769.44
703.35	1732.58
703.54	1665.00
703.73	1761.25
703.92	1695.72
704.11	1654.76
704.30	1767.40
704.49	1748.97
704.68	1675.24
704.87	1728.49
705.06	1877.99
705.25	1716.20
705.43	1679.33
705.62	1656.81
705.81	1785.83
706.00	1687.53
706.19	1753.06
706.38	1734.63
706.57	1822.69
706.76	1619.94
706.95	1832.93
707.14	1789.92
707.32	1691.62
707.51	1720.29
707.70	1634.28
707.89	1679.33
708.08	1761.25
708.27	1736.68
708.46	1769.44
708.65	1683.43
708.84	1806.31
709.02	1720.29
709.21	1675.24
709.40	1728.49
709.59	1751.01
709.78	1710.05
709.97	1671.14
710.16	1824.74
710.34	1765.35
710.53	1716.20
710.72	1699.81
710.91	1726.44
711.10	1658.85
711.29	1638.38
711.48	1779.68
711.66	1695.72
711.85	1732.58
712.04	1796.07
712.23	1681.38
712.42	1808.36
712.61	1773.54
712.80	1630.18
712.98	1683.43
713.17	1751.01
713.36	1708.01
713.55	1785.83
713.74	1699.81
713.93	1863.65
714.11	1716.20
714.30	1581.03
714.49	1785.83
714.68	1755.11
714.87	1611.75
715.06	1804.26
715.24	1779.68
715.43	1695.72
715.62	1646.57
715.81	1658.85
716.00	1730.53
716.18	1681.38
716.37	1769.44
716.56	1595.37
716.75	1724.39
716.94	1712.10
717.12	1751.01
717.31	1716.20
717.50	1652.71
717.69	1660.90
717.88	1763.30
718.06	1677.29
718.25	1691.62
718.44	1722.34
718.63	1740.77
718.82	1716.20
719.00	1691.62
719.19	1896.42
719.38	1689.57
719.57	1740.77
719.76	1734.63
719.94	1742.82
720.13	1757.16
720.32	1732.58
720.51	1771.49
720.69	1789.92
720.88	1736.68
721.07	1759.21
721.26	1757.16
721.44	1679.33
721.63	1740.77
721.82	1718.25
722.01	1763.30
722.20	1652.71
722.38	1734.63
722.57	1667.05
722.76	1736.68
722.95	1675.24
723.13	1708.01
723.32	1798.12
723.51	1761.25
723.70	1714.15
723.88	1744.87
724.07	1585.13
724.26	1789.92
724.44	1738.73
724.63	1843.17
724.82	1665.00
725.01	1599.46
725.19	1777.64
725.38	1701.86
725.57	1705.96
725.76	1724.39
725.94	1689.57
726.13	1689.57
726.32	1699.81
726.51	1687.53
726.69	1685.48
726.88	1789.92
727.07	1695.72
727.25	1662.95
727.44	1677.29
727.63	1697.77
727.82	1658.85
728.00	1777.64
728.19	1640.42
728.38	1591.27
728.56	1617.90
728.75	1810.40
728.94	1697.77
729.12	1687.53
729.31	1722.34
729.50	1699.81
729.69	1740.77
729.87	1742.82
730.06	1662.95
730.25	1798.12
730.43	1732.58
730.62	1716.20
730.81	1630.18
730.99	1724.39
731.18	1658.85
731.37	1689.57
731.55	1722.34
731.74	1716.20
731.93	1771.49
732.11	1667.05
732.30	1619.94
732.49	1722.34
732.67	1652.71
732.86	1601.51
733.05	1634.28
733.23	1748.97
733.42	1642.47
733.61	1761.25
733.79	1781.73
733.98	1751.01
734.17	1603.56
734.35	1765.35
734.54	1734.63
734.73	1736.68
734.91	1603.56
735.10	1728.49
735.29	1759.21
735.47	1669.09
735.66	1658.85
735.84	1759.21
736.03	1687.53
736.22	1685.48
736.40	1716.20
736.59	1576.94
736.78	1662.95
736.96	1755.11
737.15	1751.01
737.33	1789.92
737.52	1652.71
737.71	1701.86
737.89	1716.20
738.08	1736.68
738.27	1718.25
738.45	1732.58
738.64	1701.86
738.82	1642.47
739.01	1630.18
739.20	1683.43
739.38	1771.49
739.57	1753.06
739.75	1695.72
739.94	1767.40
740.13	1576.94
740.31	1755.11
740.50	1662.95
740.68	1738.73
740.87	1665.00
741.06	1818.60
741.24	1755.11
741.43	1703.91
741.61	1675.24
741.80	1673.19
741.99	1679.33
742.17	1777.64
742.36	1601.51
742.54	1667.05
742.73	1763.30
742.91	1634.28
743.10	1658.85
743.29	1705.96
743.47	1703.91
743.66	1667.05
743.84	1724.39
744.03	1658.85
744.21	1640.42
744.40	1656.81
744.59	1748.97
744.77	1609.70
744.96	1771.49
745.14	1662.95
745.33	1732.58
745.51	1734.63
745.70	1646.57
745.88	1728.49
746.07	1632.23
746.26	1699.81
746.44	1665.00
746.63	1615.85
746.81	1718.25
747.00	1716.20
747.18	1687.53
747.37	1681.38
747.55	1726.44
747.74	2011.11
747.92	1687.53
748.11	1730.53
748.29	1748.97
748.48	1763.30
748.66	1722.34
748.85	1701.86
749.03	1658.85
749.22	1597.42
749.41	1730.53
749.59	1683.43
749.78	1701.86
749.96	1558.50
750.15	1642.47
750.33	1763.30
750.52	1699.81
750.70	1710.05
750.89	1699.81
751.07	1609.70
751.26	1697.77
751.44	1583.08
751.63	1744.87
751.81	1636.33
752.00	1638.38
752.18	1722.34
752.37	1718.25
752.55	1646.57
752.74	1679.33
752.92	1671.14
753.10	1687.53
753.29	1564.65
753.47	1681.38
753.66	1613.80
753.84	1675.24
754.03	1607.66
754.21	1744.87
754.40	1728.49
754.58	1814.50
754.77	1736.68
754.95	1746.92
755.14	1693.67
755.32	1742.82
755.51	1638.38
755.69	1691.62
755.88	1621.99
756.06	1781.73
756.24	1621.99
756.43	1718.25
756.61	1656.81
756.80	1628.14
756.98	1667.05
757.17	1705.96
757.35	1765.35
757.54	1660.90
757.72	1679.33
757.90	1681.38
758.09	1681.38
758.27	1601.51
758.46	1699.81
758.64	1695.72
758.83	1718.25
759.01	1773.54
759.19	1740.77
759.38	1714.15
759.56	1710.05
759.75	1636.33
759.93	1699.81
760.12	1630.18
760.30	1683.43
760.48	1687.53
760.67	1757.16
760.85	1654.76
761.04	1724.39
761.22	1730.53
761.40	1736.68
761.59	1673.19
761.77	1662.95
761.96	1728.49
762.14	1683.43
762.32	1720.29
762.51	1679.33
762.69	1712.10
762.88	1783.78
763.06	1591.27
763.24	1681.38
763.43	1746.92
763.61	1732.58
763.80	1712.10
763.98	1757.16
764.16	1607.66
764.35	1615.85
764.53	1617.90
764.72	1767.40
764.90	1576.94
765.08	1740.77
765.27	1777.64
765.45	1638.38
765.63	1656.81
765.82	1787.88
766.00	1675.24
766.18	1683.43
766.37	1675.24
766.55	1720.29
766.74	1718.25
766.92	1654.76
767.10	1613.80
767.29	1724.39
767.47	1615.85
767.65	1615.85
767.84	1654.76
768.02	1789.92
768.20	1646.57
768.39	1732.58
768.57	1640.42
768.75	1619.94
768.94	1732.58
769.12	1644.52
769.30	1665.00
769.49	1718.25
769.67	1658.85
769.85	1757.16
770.04	1611.75
770.22	1671.14
770.40	1708.01
770.59	1699.81
770.77	1748.97
770.95	1720.29
771.14	1732.58
771.32	1679.33
771.50	1644.52
771.69	1656.81
771.87	1708.01
772.05	1617.90
772.24	1648.61
772.42	1726.44
772.60	1736.68
772.78	1847.27
772.97	1554.41
773.15	1708.01
773.33	1712.10
773.52	1558.50
773.70	1613.80
773.88	1665.00
774.07	1640.42
774.25	1632.23
774.43	1718.25
774.61	1650.66
774.80	1671.14
774.98	1681.38
775.16	1669.09
775.34	1718.25
775.53	1775.59
775.71	1705.96
775.89	1738.73
776.08	1658.85
776.26	1679.33
776.44	1656.81
776.62	1640.42
776.81	1654.76
776.99	1738.73
777.17	1703.91
777.35	1740.77
777.54	1753.06
777.72	1632.23
777.90	1660.90
778.08	1642.47
778.27	1693.67
778.45	1656.81
778.63	1621.99
778.81	1648.61
779.00	1677.29
779.18	1675.24
779.36	1740.77
779.54	1662.95
779.73	1691.62
779.91	1681.38
780.09	1597.42
780.27	1695.72
780.46	1648.61
780.64	1597.42
780.82	1656.81
781.00	1671.14
781.19	1619.94
781.37	1673.19
781.55	1726.44
781.73	1646.57
781.91	1662.95
782.10	1677.29
782.28	1773.54
782.46	1685.48
782.64	1814.50
782.82	1716.20
783.01	1718.25
783.19	1675.24
783.37	1742.82
783.55	1685.48
783.74	1738.73
783.92	1646.57
784.10	1691.62
784.28	1660.90
784.46	1566.70
784.64	1658.85
784.83	1695.72
785.01	1839.08
785.19	1796.07
785.37	1763.30
785.55	1722.34
785.74	1658.85
785.92	1728.49
786.10	1740.77
786.28	1789.92
786.46	1697.77
786.64	1665.00
786.83	1656.81
787.01	1748.97
787.19	1757.16
787.37	1722.34
787.55	1642.47
787.74	1640.42
787.92	1710.05
788.10	1722.34
788.28	1628.14
788.46	1607.66
788.64	1748.97
788.82	1693.67
789.01	1658.85
789.19	1738.73
789.37	1810.40
789.55	1642.47
789.73	1683.43
789.91	1677.29
790.09	1660.90
790.28	1601.51
790.46	1640.42
790.64	1677.29
790.82	1675.24
791.00	1677.29
791.18	1701.86
791.36	1722.34
791.55	1742.82
791.73	1638.38
791.91	1632.23
792.09	1669.09
792.27	1652.71
792.45	1736.68
792.63	1744.87
792.81	1658.85
793.00	1705.96
793.18	1695.72
793.36	1779.68
793.54	1673.19
793.72	1607.66
793.90	1708.01
794.08	1599.46
794.26	1703.91
794.44	1503.21
794.62	1619.94
794.81	1576.94
794.99	1683.43
795.17	1701.86
795.35	1624.04
795.53	1705.96
795.71	1703.91
795.89	1621.99
796.07	1632.23
796.25	1708.01
796.43	1765.35
796.61	1634.28
796.80	1681.38
796.98	1730.53
797.16	1681.38
797.34	1705.96
797.52	1712.10
797.70	1726.44
797.88	1787.88
798.06	1683.43
798.24	1705.96
798.42	1687.53
798.60	1738.73
798.78	1611.75
798.96	1720.29
799.14	1687.53
799.32	1716.20
799.51	1697.77
799.69	1695.72
799.87	1726.44
800.05	1753.06
800.23	1593.32
800.41	1753.06
800.59	1755.11
800.77	1638.38
800.95	1572.84
801.13	1708.01
801.31	1722.34
801.49	1802.21
801.67	1669.09
801.85	1695.72
802.03	1650.66
802.21	1669.09
802.39	1576.94
802.57	1638.38
802.75	1726.44
802.93	1673.19
803.11	1642.47
803.29	1665.00
803.47	1730.53
803.65	1605.61
803.83	1583.08
804.01	1617.90
804.19	1730.53
804.37	1662.95
804.55	1671.14
804.73	1779.68
804.91	1560.55
805.09	1689.57
805.27	1669.09
805.45	1615.85
805.63	1689.57
805.81	1699.81
805.99	1699.81
806.17	1712.10
806.35	1640.42
806.53	1705.96
806.71	1740.77
806.89	1699.81
807.07	1748.97
807.25	1746.92
807.43	1632.23
807.61	1775.59
807.79	1650.66
807.97	1685.48
808.15	1724.39
808.33	1710.05
808.51	1798.12
808.69	1703.91
808.87	1628.14
809.05	1652.71
809.23	1611.75
809.41	1632.23
809.59	1607.66
809.77	1753.06
809.95	1675.24
810.13	1728.49
810.31	1683.43
810.49	1789.92
810.67	1665.00
810.84	1724.39
811.02	1767.40
811.20	1617.90
811.38	1722.34
811.56	1572.84
811.74	1724.39
811.92	1722.34
812.10	1675.24
812.28	1712.10
812.46	1712.10
812.64	1695.72
812.82	1609.70
813.00	1576.94
813.18	1699.81
813.36	1636.33
813.53	1800.16
813.71	1779.68
813.89	1677.29
814.07	1583.08
814.25	1708.01
814.43	1650.66
814.61	1640.42
814.79	1648.61
814.97	1658.85
815.15	1648.61
815.33	1581.03
815.50	1570.79
815.68	1619.94
815.86	1671.14
816.04	1693.67
816.22	1710.05
816.40	1648.61
816.58	1597.42
816.76	1603.56
816.94	1679.33
817.11	1576.94
817.29	1599.46
817.47	1630.18
817.65	1677.29
817.83	1708.01
818.01	1615.85
818.19	1550.31
818.37	1648.61
818.54	1781.73
818.72	1730.53
818.90	1667.05
819.08	1593.32
819.26	1759.21
819.44	1761.25
819.62	1599.46
819.80	1673.19
819.97	1755.11
820.15	1650.66
820.33	1642.47
820.51	1658.85
820.69	1650.66
820.87	1744.87
821.05	1671.14
821.22	1585.13
821.40	1660.90
821.58	1746.92
821.76	1660.90
821.94	1615.85
822.12	1634.28
822.29	1693.67
822.47	1685.48
822.65	1626.09
822.83	1605.61
823.01	1677.29
823.19	1679.33
823.36	1656.81
823.54	1638.38
823.72	1708.01
823.90	1755.11
824.08	1613.80
824.25	1593.32
824.43	1726.44
824.61	1609.70
824.79	1673.19
824.97	1642.47
825.15	1755.11
825.32	1673.19
825.50	1687.53
825.68	1595.37
825.86	1708.01
826.04	1652.71
826.21	1767.40
826.39	1642.47
826.57	1667.05
826.75	1695.72
826.93	1665.00
827.10	1646.57
827.28	1634.28
827.46	1679.33
827.64	1642.47
827.81	1679.33
827.99	1667.05
828.17	1675.24
828.35	1728.49
828.53	1701.86
828.70	1681.38
828.88	1667.05
829.06	1665.00
829.24	1691.62
829.41	1685.48
829.59	1636.33
829.77	1667.05
829.95	1658.85
830.12	1615.85
830.30	1697.77
830.48	1683.43
830.66	1660.90
830.84	1669.09
831.01	1685.48
831.19	1544.17
831.37	1662.95
831.55	1593.32
831.72	1777.64
831.90	1742.82
832.08	1644.52
832.25	1755.11
832.43	1789.92
832.61	1689.57
832.79	1535.98
832.96	1611.75
833.14	1708.01
833.32	1796.07
833.50	1605.61
833.67	1712.10
833.85	1609.70
834.03	1650.66
834.20	1689.57
834.38	1734.63
834.56	1738.73
834.74	1636.33
834.91	1595.37
835.09	1681.38
835.27	1628.14
835.44	1712.10
835.62	1597.42
835.80	1615.85
835.98	1642.47
836.15	1746.92
836.33	1605.61
836.51	1587.18
836.68	1648.61
836.86	1634.28
837.04	1693.67
837.21	1808.36
837.39	1654.76
837.57	1681.38
837.75	1746.92
837.92	1691.62
838.10	1511.40
838.28	1638.38
838.45	1652.71
838.63	1570.79
838.81	1726.44
838.98	1677.29
839.16	1644.52
839.34	1626.09
839.51	1615.85
839.69	1693.67
839.87	1646.57
840.04	1695.72
840.22	1966.05
840.40	1679.33
840.57	1605.61
840.75	1699.81
840.93	1572.84
841.10	1581.03
841.28	1699.81
841.46	1701.86
841.63	1675.24
841.81	1619.94
841.98	1544.17
842.16	1779.68
842.34	1654.76
842.51	1566.70
842.69	1697.77
842.87	1669.09
843.04	1671.14
843.22	1605.61
843.40	1585.13
843.57	1619.94
843.75	1609.70
843.92	1689.57
844.10	1761.25
844.28	1591.27
844.45	1605.61
844.63	1683.43
844.81	1708.01
844.98	1669.09
845.16	1705.96
845.33	1687.53
845.51	1617.90
845.69	1722.34
845.86	1732.58
846.04	1593.32
846.21	1710.05
846.39	1640.42
846.57	1662.95
846.74	1613.80
846.92	1738.73
847.09	1646.57
847.27	1705.96
847.45	1671.14
847.62	1712.10
847.80	1652.71
847.97	1683.43
848.15	1665.00
848.32	1601.51
848.50	1765.35
848.68	1615.85
848.85	1648.61
849.03	1540.07
849.20	1689.57
849.38	1722.34
849.56	1638.38
849.73	1654.76
849.91	1677.29
850.08	1714.15
850.26	1574.89
850.43	1615.85
850.61	1744.87
850.78	1519.59
850.96	1658.85
851.14	1585.13
851.31	1791.97
851.49	1568.74
851.66	1722.34
851.84	1626.09
852.01	1619.94
852.19	1613.80
852.36	1732.58
852.54	1685.48
852.71	1650.66
852.89	1699.81
853.07	1648.61
853.24	1605.61
853.42	1617.90
853.59	1613.80
853.77	1675.24
853.94	1632.23
854.12	1794.02
854.29	1589.22
854.47	1605.61
854.64	1736.68
854.82	1705.96
854.99	1689.57
855.17	1636.33
855.34	1572.84
855.52	1660.90
855.69	1826.79
855.87	1638.38
856.04	1630.18
856.22	1701.86
856.39	1679.33
856.57	1593.32
856.74	1642.47
856.92	1798.12
857.09	1650.66
857.27	1665.00
857.44	1634.28
857.62	1675.24
857.79	1626.09
857.97	1761.25
858.14	1544.17
858.32	1685.48
858.49	1634.28
858.67	1646.57
858.84	1617.90
859.02	1748.97
859.19	1665.00
859.37	1605.61
859.54	1660.90
859.72	1593.32
859.89	1636.33
860.06	1529.83
860.24	1636.33
860.41	1740.77
860.59	1648.61
860.76	1632.23
860.94	1613.80
861.11	1640.42
861.29	1687.53
861.46	1636.33
861.64	1714.15
861.81	1724.39
861.98	1607.66
862.16	1593.32
862.33	1599.46
862.51	1689.57
862.68	1640.42
862.86	1654.76
863.03	1593.32
863.21	1642.47
863.38	1603.56
863.55	1607.66
863.73	1697.77
863.90	1726.44
864.08	1626.09
864.25	1685.48
864.43	1730.53
864.60	1681.38
864.77	1636.33
864.95	1736.68
865.12	1601.51
865.30	1769.44
865.47	1650.66
865.64	1681.38
865.82	1591.27
865.99	1755.11
866.17	1710.05
866.34	1714.15
866.51	1562.60
866.69	1595.37
866.86	1652.71
867.04	1781.73
867.21	1662.95
867.38	1513.45
867.56	1665.00
867.73	1708.01
867.91	1748.97
868.08	1636.33
868.25	1628.14
868.43	1642.47
868.60	1650.66
868.78	1593.32
868.95	1726.44
869.12	1673.19
869.30	1619.94
869.47	1665.00
869.64	1599.46
869.82	1613.80
869.99	1671.14
870.16	1699.81
870.34	1736.68
870.51	1732.58
870.69	1624.04
870.86	1646.57
871.03	1640.42
871.21	1617.90
871.38	1675.24
871.55	1710.05
871.73	1603.56
871.90	1636.33
872.07	1714.15
872.25	1556.46
872.42	1617.90
872.59	1603.56
872.77	1617.90
872.94	1677.29
873.11	1628.14
873.29	1765.35
873.46	1634.28
873.63	1681.38
873.81	1667.05
873.98	1730.53
874.15	1667.05
874.33	1714.15
874.50	1755.11
874.67	1744.87
874.85	1501.16
875.02	1669.09
875.19	1585.13
875.37	1679.33
875.54	1628.14
875.71	1695.72
875.88	1712.10
876.06	1654.76
876.23	1724.39
876.40	1691.62
876.58	1624.04
876.75	1658.85
876.92	1677.29
877.10	1681.38
877.27	1634.28
877.44	1671.14
877.61	1611.75
877.79	1671.14
877.96	1712.10
878.13	1761.25
878.31	1656.81
878.48	1613.80
878.65	1769.44
878.82	1538.02
879.00	1624.04
879.17	1683.43
879.34	1589.22
879.51	1638.38
879.69	1634.28
879.86	1482.73
880.03	1581.03
880.21	1683.43
880.38	1628.14
880.55	1695.72
880.72	1744.87
880.90	1701.86
881.07	1585.13
881.24	1677.29
881.41	1691.62
881.59	1650.66
881.76	1665.00
881.93	1656.81
882.10	1634.28
882.28	1716.20
882.45	1765.35
882.62	1765.35
882.79	1671.14
882.96	1587.18
883.14	1648.61
883.31	1638.38
883.48	1554.41
883.65	1628.14
883.83	1640.42
884.00	1658.85
884.17	1562.60
884.34	1646.57
884.51	1679.33
884.69	1705.96
884.86	1636.33
885.03	1638.38
885.20	1578.98
885.38	1728.49
885.55	1656.81
885.72	1634.28
885.89	1624.04
886.06	1632.23
886.24	1583.08
886.41	1617.90
886.58	1695.72
886.75	1693.67
886.92	1638.38
887.10	1624.04
887.27	1701.86
887.44	1726.44
887.61	1775.59
887.78	1751.01
887.95	1644.52
888.13	1656.81
888.30	1568.74
888.47	1736.68
888.64	1605.61
888.81	1714.15
888.99	1632.23
889.16	1617.90
889.33	1662.95
889.50	1626.09
889.67	1695.72
889.84	1728.49
890.01	1722.34
890.19	1701.86
890.36	1730.53
890.53	1652.71
890.70	1685.48
890.87	1652.71
891.04	1654.76
891.22	1640.42
891.39	1533.93
891.56	1681.38
891.73	1689.57
891.90	1679.33
892.07	1556.46
892.24	1689.57
892.42	1673.19
892.59	1634.28
892.76	1765.35
892.93	1558.50
893.10	1556.46
893.27	1685.48
893.44	1607.66
893.61	1687.53
893.79	1708.01
893.96	1636.33
894.13	1656.81
894.30	1578.98
894.47	1681.38
894.64	1726.44
894.81	1603.56
894.98	1619.94
895.15	1650.66
895.33	1691.62
895.50	1634.28
895.67	1615.85
895.84	1660.90
896.01	1685.48
896.18	1447.91
896.35	1773.54
896.52	1640.42
896.69	1669.09
896.86	1644.52
897.04	1701.86
897.21	1689.57
897.38	1652.71
897.55	1675.24
897.72	1630.18
897.89	1593.32
898.06	1699.81
898.23	1546.22
898.40	1718.25
898.57	1658.85
898.74	1683.43
898.91	1632.23
899.08	1640.42
899.26	1720.29
899.43	1654.76
899.60	1660.90
899.77	1746.92
899.94	1599.46
900.11	1675.24
900.28	1642.47
900.45	1732.58
900.62	1648.61
900.79	1714.15
900.96	1583.08
901.13	1597.42
901.30	1566.70
901.47	1599.46
901.64	1576.94
901.81	1714.15
901.98	1654.76
902.15	1751.01
902.32	1492.97
902.49	1708.01
902.66	1740.77
902.83	1667.05
903.01	1687.53
903.18	1621.99
903.35	1611.75
903.52	1648.61
903.69	1642.47
903.86	1607.66
904.03	1591.27
904.20	1654.76
904.37	1705.96
904.54	1531.88
904.71	1648.61
904.88	1619.94
905.05	1517.54
905.22	1636.33
905.39	1576.94
905.56	1624.04
905.73	1595.37
905.90	1681.38
906.07	1687.53
906.24	1673.19
906.41	1619.94
906.58	1730.53
906.75	1495.02
906.92	1540.07
907.09	1646.57
907.26	1656.81
907.43	1644.52
907.60	1632.23
907.77	1691.62
907.93	1673.19
908.10	1671.14
908.27	1746.92
908.44	1560.55
908.61	1607.66
908.78	1650.66
908.95	1798.12
909.12	1697.77
909.29	1675.24
909.46	1650.66
909.63	1710.05
909.80	1636.33
909.97	1624.04
910.14	1621.99
910.31	1615.85
910.48	1654.76
910.65	1630.18
910.82	1634.28
910.99	1679.33
911.16	1683.43
911.33	1644.52
911.50	1679.33
911.66	1638.38
911.83	1632.23
912.00	1632.23
912.17	1523.69
912.34	1560.55
912.51	1640.42
912.68	1531.88
912.85	1740.77
913.02	1732.58
913.19	1638.38
913.36	1689.57
913.53	1761.25
913.70	1712.10
913.86	1662.95
914.03	1595.37
914.20	1621.99
914.37	1624.04
914.54	1660.90
914.71	1667.05
914.88	1703.91
915.05	1683.43
915.22	1642.47
915.39	1671.14
915.55	1699.81
915.72	1527.78
915.89	1609.70
916.06	1697.77
916.23	1589.22
916.40	1662.95
916.57	1587.18
916.74	1697.77
916.91	1634.28
917.07	1558.50
917.24	1587.18
917.41	1581.03
917.58	1687.53
917.75	1650.66
917.92	1576.94
918.09	1656.81
918.26	1685.48
918.42	1581.03
918.59	1658.85
918.76	1632.23
918.93	1576.94
919.10	1589.22
919.27	1658.85
919.44	1642.47
919.60	1630.18
919.77	1628.14
919.94	1597.42
920.11	1581.03
920.28	1748.97
920.45	1591.27
920.61	1609.70
920.78	1665.00
920.95	1687.53
921.12	1654.76
921.29	1595.37
921.46	1640.42
921.62	1527.78
921.79	1699.81
921.96	1699.81
922.13	1656.81
922.30	1638.38
922.47	1607.66
922.63	1662.95
922.80	1581.03
922.97	1591.27
923.14	1527.78
923.31	1619.94
923.47	1650.66
923.64	1816.55
923.81	1615.85
923.98	1710.05
924.15	1613.80
924.32	1642.47
924.48	1708.01
924.65	1667.05
924.82	1585.13
924.99	1636.33
925.15	1546.22
925.32	1759.21
925.49	1607.66
925.66	1679.33
925.83	1667.05
925.99	1628.14
926.16	1683.43
926.33	1626.09
926.50	1597.42
926.67	1675.24
926.83	1609.70
927.00	1646.57
927.17	1624.04
927.34	1540.07
927.50	1632.23
927.67	1769.44
927.84	1710.05
928.01	1658.85
928.17	1705.96
928.34	1708.01
928.51	1732.58
928.68	1662.95
928.84	1646.57
929.01	1626.09
929.18	1619.94
929.35	1656.81
929.51	1591.27
929.68	1652.71
929.85	1605.61
930.02	1572.84
930.18	1658.85
930.35	1648.61
930.52	1601.51
930.69	1703.91
930.85	1675.24
931.02	1650.66
931.19	1652.71
931.36	1636.33
931.52	1681.38
931.69	1689.57
931.86	1652.71
932.02	1597.42
932.19	1646.57
932.36	1662.95
932.53	1650.66
932.69	1640.42
932.86	1734.63
933.03	1660.90
933.19	1552.36
933.36	1687.53
933.53	1726.44
933.70	1636.33
933.86	1714.15
934.03	1705.96
934.20	1576.94
934.36	1689.57
934.53	1638.38
934.70	1617.90
934.86	1626.09
935.03	1591.27
935.20	1568.74
935.36	1693.67
935.53	1566.70
935.70	1581.03
935.86	1687.53
936.03	1607.66
936.20	1601.51
936.36	1656.81
936.53	1654.76
936.70	1558.50
936.86	1787.88
937.03	1673.19
937.20	1640.42
937.36	1714.15
937.53	1542.12
937.70	1564.65
937.86	1574.89
938.03	1648.61
938.20	1736.68
938.36	1650.66
938.53	1683.43
938.70	1570.79
938.86	1665.00
939.03	1599.46
939.20	1619.94
939.36	1665.00
939.53	1660.90
939.70	1843.17
939.86	1599.46
940.03	1632.23
940.19	1595.37
940.36	1626.09
940.53	1632.23
940.69	1617.90
940.86	1609.70
941.03	1626.09
941.19	1511.40
941.36	1732.58
941.52	1648.61
941.69	1652.71
941.86	1671.14
942.02	1656.81
942.19	1685.48
942.35	1710.05
942.52	1615.85
942.69	1675.24
942.85	1613.80
943.02	1593.32
943.18	1677.29
943.35	1544.17
943.52	1591.27
943.68	1595.37
943.85	1650.66
944.01	1656.81
944.18	1634.28
944.35	1644.52
944.51	1611.75
944.68	1630.18
944.84	1560.55
945.01	1665.00
945.17	1662.95
945.34	1642.47
945.51	1712.10
945.67	1585.13
945.84	1673.19
946.00	1593.32
946.17	1673.19
946.33	1607.66
946.50	1648.61
946.67	1628.14
946.83	1601.51
947.00	1615.85
947.16	1574.89
947.33	1589.22
947.49	1644.52
947.66	1556.46
947.82	1699.81
947.99	1652.71
948.16	1724.39
948.32	1576.94
948.49	1699.81
948.65	1650.66
948.82	1679.33
948.98	1603.56
949.15	1495.02
949.31	1609.70
949.48	1669.09
949.64	1597.42
949.81	1613.80
949.97	1621.99
950.14	1646.57
950.30	1570.79
950.47	1667.05
950.63	1650.66
950.80	1699.81
950.96	1638.38
951.13	1652.71
951.30	1609.70
951.46	1566.70
951.63	1675.24
951.79	1574.89
951.96	1667.05
952.12	1636.33
952.29	1652.71
952.45	1552.36
952.62	1658.85
952.78	1636.33
952.94	1632.23
953.11	1585.13
953.27	1542.12
953.44	1673.19
953.60	1712.10
953.77	1648.61
953.93	1687.53
954.10	1636.33
954.26	1654.76
954.43	1613.80
954.59	1720.29
954.76	1771.49
954.92	1611.75
955.09	1687.53
955.25	1576.94
955.42	1617.90
955.58	1662.95
955.75	1662.95
955.91	1583.08
956.07	1636.33
956.24	1656.81
956.40	1642.47
956.57	1646.57
956.73	1638.38
956.90	1634.28
957.06	1599.46
957.23	1638.38
957.39	1595.37
957.56	1710.05
957.72	1531.88
957.88	1613.80
958.05	1691.62
958.21	1662.95
958.38	1593.32
958.54	1564.65
958.71	1689.57
958.87	1589.22
959.03	1621.99
959.20	1648.61
959.36	1531.88
959.53	1578.98
959.69	1619.94
959.85	1714.15
960.02	1593.32
960.18	1587.18
960.35	1593.32
960.51	1714.15
960.68	1509.35
960.84	1624.04
961.00	1585.13
961.17	1527.78
961.33	1671.14
961.50	1632.23
961.66	1714.15
961.82	1558.50
961.99	1683.43
962.15	1626.09
962.31	1535.98
962.48	1638.38
962.64	1687.53
962.81	1671.14
962.97	1566.70
963.13	1656.81
963.30	1675.24
963.46	1568.74
963.62	1544.17
963.79	1712.10
963.95	1587.18
964.12	1593.32
964.28	1662.95
964.44	1568.74
964.61	1734.63
964.77	1669.09
964.93	1765.35
965.10	1665.00
965.26	1617.90
965.42	1648.61
965.59	1677.29
965.75	1556.46
965.92	1667.05
966.08	1656.81
966.24	1703.91
966.41	1701.86
966.57	1591.27
966.73	1691.62
966.90	1642.47
967.06	1589.22
967.22	1613.80
967.39	1611.75
967.55	1589.22
967.71	1634.28
967.88	1570.79
968.04	1568.74
968.20	1570.79
968.37	1611.75
968.53	1624.04
968.69	1667.05
968.85	1650.66
969.02	1660.90
969.18	1621.99
969.34	1605.61
969.51	1607.66
969.67	1744.87
969.83	1599.46
970.00	1712.10
970.16	1583.08
970.32	1675.24
970.48	1695.72
970.65	1644.52
970.81	1597.42
970.97	1640.42
971.14	1576.94
971.30	1705.96
971.46	1572.84
971.63	1617.90
971.79	1628.14
971.95	1552.36
972.11	1581.03
972.28	1644.52
972.44	1654.76
972.60	1634.28
972.76	1638.38
972.93	1642.47
973.09	1656.81
973.25	1665.00
973.42	1597.42
973.58	1677.29
973.74	1656.81
973.90	1681.38
974.07	1519.59
974.23	1613.80
974.39	1689.57
974.55	1576.94
974.72	1544.17
974.88	1517.54
975.04	1705.96
975.20	1607.66
975.37	1710.05
975.53	1628.14
975.69	1621.99
975.85	1591.27
976.01	1585.13
976.18	1615.85
976.34	1624.04
976.50	1722.34
976.66	1646.57
976.83	1611.75
976.99	1597.42
977.15	1671.14
977.31	1587.18
977.47	1652.71
977.64	1732.58
977.80	1630.18
977.96	1591.27
978.12	1593.32
978.29	1679.33
978.45	1609.70
978.61	1601.51
978.77	1714.15
978.93	1542.12
979.10	1675.24
979.26	1611.75
979.42	1593.32
979.58	1527.78
979.74	1583.08
979.91	1609.70
980.07	1630.18
980.23	1660.90
980.39	1611.75
980.55	1699.81
980.71	1648.61
980.88	1576.94
981.04	1597.42
981.20	1548.26
981.36	1681.38
981.52	1626.09
981.68	1546.22
981.85	1642.47
982.01	1593.32
982.17	1525.74
982.33	1593.32
982.49	1751.01
982.65	1669.09
982.82	1601.51
982.98	1613.80
983.14	1574.89
983.30	1708.01
983.46	1732.58
983.62	1619.94
983.79	1609.70
983.95	1576.94
984.11	1540.07
984.27	1599.46
984.43	1626.09
984.59	1570.79
984.75	1693.67
984.91	1675.24
985.08	1665.00
985.24	1495.02
985.40	1613.80
985.56	1644.52
985.72	1683.43
985.88	1634.28
986.04	1546.22
986.20	1581.03
986.37	1581.03
986.53	1574.89
986.69	1642.47
986.85	1599.46
987.01	1593.32
987.17	1644.52
987.33	1558.50
987.49	1585.13
987.65	1624.04
987.82	1656.81
987.98	1544.17
988.14	1574.89
988.30	1691.62
988.46	1626.09
988.62	1701.86
988.78	1609.70
988.94	1658.85
989.10	1640.42
989.26	1548.26
989.42	1585.13
989.59	1566.70
989.75	1644.52
989.91	1757.16
990.07	1615.85
990.23	1619.94
990.39	1656.81
990.55	1679.33
990.71	1570.79
990.87	1585.13
991.03	1570.79
991.19	1572.84
991.35	1578.98
991.51	1687.53
991.67	1671.14
991.83	1648.61
992.00	1607.66
992.16	1646.57
992.32	1607.66
992.48	1626.09
992.64	1613.80
992.80	1624.04
992.96	1607.66
993.12	1605.61
993.28	1665.00
993.44	1626.09
993.60	1638.38
993.76	1613.80
993.92	1652.71
994.08	1683.43
994.24	1667.05
994.40	1624.04
994.56	1654.76
994.72	1581.03
994.88	1560.55
995.04	1626.09
995.20	1603.56
995.36	1574.89
995.52	1685.48
995.68	1646.57
995.84	1654.76
996.00	1814.50
996.16	1605.61
996.32	1615.85
996.48	1632.23
996.64	1722.34
996.80	1605.61
996.96	1607.66
997.12	1540.07
997.28	1531.88
997.44	1560.55
997.60	1658.85
997.76	1576.94
997.92	1626.09
998.08	1646.57
998.24	1540.07
998.40	1593.32
998.56	1689.57
998.72	1521.64
998.88	1583.08
999.04	1538.02
999.20	1617.90
999.36	1552.36
999.52	1673.19
999.68	1591.27
999.84	1578.98
1000.00	1634.28
1000.16	1654.76
1000.32	1591.27
1000.48	1744.87
1000.64	1597.42
1000.80	1574.89
1000.95	1548.26
1001.11	1617.90
1001.27	1562.60
1001.43	1662.95
1001.59	1611.75
1001.75	1640.42
1001.91	1658.85
1002.07	1613.80
1002.23	1593.32
1002.39	1593.32
1002.55	1595.37
1002.71	1632.23
1002.87	1607.66
1003.03	1558.50
1003.19	1574.89
1003.34	1675.24
1003.50	1595.37
1003.66	1748.97
1003.82	1632.23
1003.98	1570.79
1004.14	1597.42
1004.30	1671.14
1004.46	1578.98
1004.62	1603.56
1004.78	1626.09
1004.94	1628.14
1005.09	1658.85
1005.25	1611.75
1005.41	1523.69
1005.57	1650.66
1005.73	1562.60
1005.89	1576.94
1006.05	1697.77
1006.21	1673.19
1006.37	1564.65
1006.52	1607.66
1006.68	1556.46
1006.84	1660.90
1007.00	1560.55
1007.16	1724.39
1007.32	1570.79
1007.48	1581.03
1007.64	1656.81
1007.79	1593.32
1007.95	1574.89
1008.11	1648.61
1008.27	1535.98
1008.43	1705.96
1008.59	1562.60
1008.75	1675.24
1008.91	1714.15
1009.06	1630.18
1009.22	1652.71
1009.38	1652.71
1009.54	1662.95
1009.70	1640.42
1009.86	1679.33
1010.01	1667.05
1010.17	1554.41
1010.33	1693.67
1010.49	1624.04
1010.65	1656.81
1010.81	1591.27
1010.96	1624.04
1011.12	1566.70
1011.28	1646.57
1011.44	1687.53
1011.60	1699.81
1011.76	1650.66
1011.91	1632.23
1012.07	1554.41
1012.23	1574.89
1012.39	1521.64
1012.55	1705.96
1012.71	1572.84
1012.86	1558.50
1013.02	1548.26
1013.18	1630.18
1013.34	1589.22
1013.50	1654.76
1013.65	1660.90
1013.81	1535.98
1013.97	1593.32
1014.13	1626.09
1014.29	1624.04
1014.44	1705.96
1014.60	1650.66
1014.76	1611.75
1014.92	1578.98
1015.07	1652.71
1015.23	1720.29
1015.39	1568.74
1015.55	1650.66
1015.71	1574.89
1015.86	1574.89
1016.02	1486.83
1016.18	1630.18
1016.34	1581.03
1016.49	1660.90
1016.65	1669.09
1016.81	1578.98
1016.97	1648.61
1017.12	1687.53
1017.28	1556.46
1017.44	1542.12
1017.60	1607.66
1017.75	1593.32
1017.91	1589.22
1018.07	1662.95
1018.23	1544.17
1018.38	1581.03
1018.54	1574.89
1018.70	1601.51
1018.86	1583.08
1019.01	1560.55
1019.17	1624.04
1019.33	1738.73
1019.49	1710.05
1019.64	1636.33
1019.80	1658.85
1019.96	1632.23
1020.12	1630.18
1020.27	1556.46
1020.43	1656.81
1020.59	1640.42
1020.74	1687.53
1020.90	1660.90
1021.06	1562.60
1021.22	1673.19
1021.37	1621.99
1021.53	1513.45
1021.69	1650.66
1021.84	1515.50
1022.00	1570.79
1022.16	1605.61
1022.31	1572.84
1022.47	1712.10
1022.63	1619.94
1022.79	1544.17
1022.94	1607.66
1023.10	1679.33
1023.26	1611.75
1023.41	1597.42
1023.57	1601.51
1023.73	1658.85
1023.88	1597.42
1024.04	1607.66
1024.20	1613.80
1024.35	1626.09
1024.51	1658.85
1024.67	1634.28
1024.82	1716.20
1024.98	1607.66
1025.14	1662.95
1025.29	1640.42
1025.45	1626.09
1025.61	1558.50
1025.76	1599.46
1025.92	1589.22
1026.08	1699.81
1026.23	1628.14
1026.39	1697.77
1026.55	1587.18
1026.70	1609.70
1026.86	1562.60
1027.02	1687.53
1027.17	1595.37
1027.33	1679.33
1027.48	1632.23
1027.64	1562.60
1027.80	1607.66
1027.95	1703.91
1028.11	1595.37
1028.27	1675.24
1028.42	1624.04
1028.58	1624.04
1028.73	1619.94
1028.89	1566.70
1029.05	1685.48
1029.20	1710.05
>>>>>End Processed Spectral Data<<<<<
