SpectraSuite Data File
++++++++++++++++++++++++++++++++++++
Date: Fri Jun 02 14:57:16 CEST 2017
User: INFO_000
Dark Spectrum Present: No
Reference Spectrum Present: No
Number of Sampled Component Spectra: 1
Spectrometers: USB4H00879
Integration Time (usec): 80000 (USB4H00879)
Spectra Averaged: 1 (USB4H00879)
Boxcar Smoothing: 0 (USB4H00879)
Correct for Electrical Dark: No (USB4H00879)
Strobe/Lamp Enabled: No (USB4H00879)
Correct for Detector Non-linearity: No (USB4H00879)
Correct for Stray Light: No (USB4H00879)
Number of Pixels in Processed Spectrum: 3648
>>>>>Begin Processed Spectral Data<<<<<
345.13	1275.88
345.34	1275.88
345.56	1275.88
345.78	1322.99
345.99	1329.13
346.21	1716.20
346.42	1660.90
346.64	1613.80
346.86	1771.49
347.07	1691.62
347.29	1697.77
347.50	1662.95
347.72	1722.34
347.94	1687.53
348.15	1570.79
348.37	1611.75
348.59	1765.35
348.80	1589.22
349.02	1701.86
349.23	1816.55
349.45	1708.01
349.67	1742.82
349.88	1722.34
350.10	1845.22
350.31	1710.05
350.53	1740.77
350.75	1855.46
350.96	1654.76
351.18	1763.30
351.39	1671.14
351.61	1710.05
351.82	1787.88
352.04	1695.72
352.26	1703.91
352.47	1746.92
352.69	1753.06
352.90	1662.95
353.12	1699.81
353.34	1683.43
353.55	1814.50
353.77	1746.92
353.98	1720.29
354.20	1753.06
354.41	1834.98
354.63	1763.30
354.85	1925.09
355.06	1738.73
355.28	1626.09
355.49	1755.11
355.71	1722.34
355.92	1681.38
356.14	1687.53
356.35	1746.92
356.57	1662.95
356.79	1679.33
357.00	1714.15
357.22	1800.16
357.43	1685.48
357.65	1789.92
357.86	1675.24
358.08	1691.62
358.29	1691.62
358.51	1789.92
358.72	1763.30
358.94	1712.10
359.16	1708.01
359.37	1652.71
359.59	1656.81
359.80	1718.25
360.02	1685.48
360.23	1669.09
360.45	1732.58
360.66	1712.10
360.88	1609.70
361.09	1714.15
361.31	1736.68
361.52	1761.25
361.74	1810.40
361.95	1777.64
362.17	1675.24
362.38	1888.23
362.60	1734.63
362.81	1630.18
363.03	1714.15
363.24	1708.01
363.46	1775.59
363.67	1691.62
363.89	1767.40
364.10	1730.53
364.32	1775.59
364.53	1794.02
364.75	1654.76
364.96	1683.43
365.18	1662.95
365.39	1667.05
365.61	1710.05
365.82	1699.81
366.04	1640.42
366.25	1701.86
366.47	1771.49
366.68	1734.63
366.90	1691.62
367.11	1724.39
367.33	1767.40
367.54	1722.34
367.76	1728.49
367.97	1761.25
368.19	1769.44
368.40	1710.05
368.62	1736.68
368.83	1673.19
369.05	1769.44
369.26	1673.19
369.48	1697.77
369.69	1642.47
369.91	1771.49
370.12	1693.67
370.33	1755.11
370.55	1621.99
370.76	1689.57
370.98	1759.21
371.19	1732.58
371.41	1681.38
371.62	1646.57
371.84	1621.99
372.05	1877.99
372.27	1638.38
372.48	1687.53
372.69	1720.29
372.91	1812.45
373.12	1728.49
373.34	1738.73
373.55	1695.72
373.77	1710.05
373.98	1710.05
374.20	1794.02
374.41	1779.68
374.62	1742.82
374.84	1771.49
375.05	1753.06
375.27	1658.85
375.48	1660.90
375.70	1722.34
375.91	1738.73
376.12	1843.17
376.34	1759.21
376.55	1718.25
376.77	1660.90
376.98	1576.94
377.19	1685.48
377.41	1677.29
377.62	1705.96
377.84	1736.68
378.05	1806.31
378.27	1683.43
378.48	1769.44
378.69	1875.94
378.91	1789.92
379.12	1681.38
379.34	1705.96
379.55	1748.97
379.76	1748.97
379.98	1646.57
380.19	1726.44
380.41	1808.36
380.62	1832.93
380.83	1736.68
381.05	1658.85
381.26	1781.73
381.47	1681.38
381.69	1673.19
381.90	1839.08
382.12	1677.29
382.33	1652.71
382.54	1716.20
382.76	1722.34
382.97	1685.48
383.19	1589.22
383.40	1830.88
383.61	1683.43
383.83	1681.38
384.04	1634.28
384.25	1740.77
384.47	1796.07
384.68	1740.77
384.89	1705.96
385.11	1613.80
385.32	1648.61
385.54	1638.38
385.75	1681.38
385.96	1673.19
386.18	1671.14
386.39	1779.68
386.60	1685.48
386.82	1646.57
387.03	1658.85
387.24	1789.92
387.46	1695.72
387.67	1720.29
387.88	1720.29
388.10	1675.24
388.31	1656.81
388.52	1751.01
388.74	1761.25
388.95	1671.14
389.16	1714.15
389.38	1615.85
389.59	1697.77
389.80	1740.77
390.02	1679.33
390.23	1742.82
390.44	1746.92
390.66	1611.75
390.87	1650.66
391.08	1787.88
391.30	1777.64
391.51	1744.87
391.72	1751.01
391.94	1697.77
392.15	1714.15
392.36	1710.05
392.58	1667.05
392.79	1761.25
393.00	1736.68
393.22	1703.91
393.43	1722.34
393.64	1783.78
393.85	1794.02
394.07	1591.27
394.28	1714.15
394.49	1744.87
394.71	1740.77
394.92	1789.92
395.13	1726.44
395.35	1652.71
395.56	1650.66
395.77	1705.96
395.98	1701.86
396.20	1748.97
396.41	1660.90
396.62	1746.92
396.84	1667.05
397.05	1642.47
397.26	1656.81
397.47	1794.02
397.69	1689.57
397.90	1869.80
398.11	1740.77
398.32	1640.42
398.54	1669.09
398.75	1630.18
398.96	1710.05
399.18	1783.78
399.39	1658.85
399.60	1785.83
399.81	1669.09
400.03	1667.05
400.24	1992.67
400.45	1701.86
400.66	1650.66
400.88	1654.76
401.09	1894.37
401.30	1722.34
401.51	1755.11
401.73	1804.26
401.94	1789.92
402.15	1689.57
402.36	1761.25
402.58	1783.78
402.79	1761.25
403.00	1751.01
403.21	1753.06
403.43	1826.79
403.64	1732.58
403.85	1675.24
404.06	1753.06
404.27	1658.85
404.49	1708.01
404.70	1585.13
404.91	1757.16
405.12	1705.96
405.34	1726.44
405.55	1841.12
405.76	1621.99
405.97	1632.23
406.19	1783.78
406.40	1677.29
406.61	1726.44
406.82	1658.85
407.03	1740.77
407.25	1634.28
407.46	1839.08
407.67	1814.50
407.88	1673.19
408.09	1710.05
408.31	1646.57
408.52	1746.92
408.73	1601.51
408.94	1673.19
409.15	1769.44
409.37	1802.21
409.58	1693.67
409.79	1755.11
410.00	1820.64
410.21	1755.11
410.43	1722.34
410.64	1662.95
410.85	1691.62
411.06	1742.82
411.27	1724.39
411.48	1687.53
411.70	1716.20
411.91	1763.30
412.12	1757.16
412.33	1734.63
412.54	1658.85
412.76	1769.44
412.97	1796.07
413.18	1689.57
413.39	1744.87
413.60	1728.49
413.81	1783.78
414.03	1638.38
414.24	1632.23
414.45	1816.55
414.66	1593.32
414.87	1671.14
415.08	1644.52
415.30	1708.01
415.51	1855.46
415.72	1675.24
415.93	1705.96
416.14	1683.43
416.35	1642.47
416.56	1734.63
416.78	1687.53
416.99	1708.01
417.20	1783.78
417.41	1744.87
417.62	1746.92
417.83	1679.33
418.04	1753.06
418.26	1781.73
418.47	1703.91
418.68	1763.30
418.89	1763.30
419.10	1841.12
419.31	1695.72
419.52	1798.12
419.73	1699.81
419.95	1798.12
420.16	1613.80
420.37	1662.95
420.58	1708.01
420.79	1601.51
421.00	1654.76
421.21	1712.10
421.42	1714.15
421.63	1691.62
421.85	1669.09
422.06	1634.28
422.27	1671.14
422.48	1687.53
422.69	1726.44
422.90	1624.04
423.11	1624.04
423.32	1873.89
423.53	1783.78
423.75	1712.10
423.96	1732.58
424.17	1773.54
424.38	1843.17
424.59	1720.29
424.80	1712.10
425.01	1732.58
425.22	1613.80
425.43	1761.25
425.64	1787.88
425.85	1775.59
426.06	1658.85
426.28	1691.62
426.49	1675.24
426.70	1597.42
426.91	1699.81
427.12	1740.77
427.33	1652.71
427.54	1714.15
427.75	1683.43
427.96	1767.40
428.17	1660.90
428.38	1617.90
428.59	1685.48
428.80	1687.53
429.01	1740.77
429.23	1681.38
429.44	1720.29
429.65	1689.57
429.86	1671.14
430.07	1671.14
430.28	1697.77
430.49	1726.44
430.70	1738.73
430.91	1839.08
431.12	1634.28
431.33	1705.96
431.54	1687.53
431.75	1736.68
431.96	1642.47
432.17	1695.72
432.38	1714.15
432.59	1787.88
432.80	1751.01
433.01	1658.85
433.22	1722.34
433.43	1708.01
433.64	1773.54
433.85	1787.88
434.06	1703.91
434.27	1548.26
434.49	1757.16
434.70	1761.25
434.91	1685.48
435.12	1656.81
435.33	1720.29
435.54	1759.21
435.75	1667.05
435.96	1665.00
436.17	1720.29
436.38	1730.53
436.59	1679.33
436.80	1626.09
437.01	1779.68
437.22	1732.58
437.43	1767.40
437.64	1679.33
437.85	1687.53
438.06	1732.58
438.27	1732.58
438.48	1708.01
438.69	1722.34
438.90	1716.20
439.11	1701.86
439.32	1773.54
439.53	1589.22
439.74	1621.99
439.95	1683.43
440.16	1562.60
440.37	1671.14
440.57	1714.15
440.78	1712.10
440.99	1685.48
441.20	1740.77
441.41	1617.90
441.62	1607.66
441.83	1611.75
442.04	1658.85
442.25	1685.48
442.46	1673.19
442.67	1605.61
442.88	1796.07
443.09	1687.53
443.30	1624.04
443.51	1589.22
443.72	1746.92
443.93	1677.29
444.14	1746.92
444.35	1656.81
444.56	1720.29
444.77	1593.32
444.98	1742.82
445.19	1791.97
445.40	1726.44
445.61	1624.04
445.81	1658.85
446.02	1775.59
446.23	1703.91
446.44	1693.67
446.65	1724.39
446.86	1789.92
447.07	1900.52
447.28	1726.44
447.49	1681.38
447.70	1681.38
447.91	1761.25
448.12	1665.00
448.33	1693.67
448.54	1689.57
448.74	1658.85
448.95	1642.47
449.16	1718.25
449.37	1777.64
449.58	1720.29
449.79	1748.97
450.00	1679.33
450.21	1660.90
450.42	1654.76
450.63	1769.44
450.84	1599.46
451.05	1724.39
451.25	1632.23
451.46	1644.52
451.67	1800.16
451.88	1740.77
452.09	1730.53
452.30	1630.18
452.51	1656.81
452.72	1753.06
452.93	1748.97
453.13	1662.95
453.34	1693.67
453.55	1736.68
453.76	1773.54
453.97	1660.90
454.18	1583.08
454.39	1728.49
454.60	1646.57
454.81	1687.53
455.01	1640.42
455.22	1603.56
455.43	1597.42
455.64	1691.62
455.85	1751.01
456.06	1769.44
456.27	1757.16
456.48	1687.53
456.68	1693.67
456.89	1771.49
457.10	1699.81
457.31	1638.38
457.52	1724.39
457.73	1673.19
457.94	1705.96
458.14	1550.31
458.35	1691.62
458.56	1650.66
458.77	1757.16
458.98	1642.47
459.19	1728.49
459.39	1720.29
459.60	1685.48
459.81	1705.96
460.02	1630.18
460.23	1593.32
460.44	1656.81
460.65	1695.72
460.85	1714.15
461.06	1656.81
461.27	1751.01
461.48	1611.75
461.69	1624.04
461.89	1593.32
462.10	1689.57
462.31	1607.66
462.52	1648.61
462.73	1581.03
462.94	1751.01
463.14	1654.76
463.35	1779.68
463.56	1826.79
463.77	1787.88
463.98	1626.09
464.18	1667.05
464.39	1730.53
464.60	1759.21
464.81	1521.64
465.02	1740.77
465.23	1687.53
465.43	1646.57
465.64	1656.81
465.85	1662.95
466.06	1654.76
466.27	1744.87
466.47	1667.05
466.68	1806.31
466.89	1650.66
467.10	1566.70
467.30	1640.42
467.51	1822.69
467.72	1787.88
467.93	1562.60
468.14	1617.90
468.34	1787.88
468.55	1720.29
468.76	1816.55
468.97	1683.43
469.17	1751.01
469.38	1820.64
469.59	1736.68
469.80	1687.53
470.01	1742.82
470.21	1714.15
470.42	1628.14
470.63	1708.01
470.84	1781.73
471.04	1597.42
471.25	1834.98
471.46	1755.11
471.67	1826.79
471.87	1665.00
472.08	1710.05
472.29	1662.95
472.50	1773.54
472.70	1656.81
472.91	1628.14
473.12	1626.09
473.33	1671.14
473.53	1705.96
473.74	1710.05
473.95	1671.14
474.16	1662.95
474.36	1646.57
474.57	1789.92
474.78	1695.72
474.99	1847.27
475.19	1632.23
475.40	1746.92
475.61	1667.05
475.81	1796.07
476.02	1667.05
476.23	1714.15
476.44	1697.77
476.64	1716.20
476.85	1697.77
477.06	1732.58
477.27	1646.57
477.47	1716.20
477.68	1748.97
477.89	1746.92
478.09	1736.68
478.30	1701.86
478.51	1740.77
478.71	1689.57
478.92	1697.77
479.13	1789.92
479.34	1691.62
479.54	1667.05
479.75	1603.56
479.96	1722.34
480.16	1705.96
480.37	1632.23
480.58	1683.43
480.78	1787.88
480.99	1677.29
481.20	1652.71
481.41	1726.44
481.61	1740.77
481.82	1755.11
482.03	1648.61
482.23	1656.81
482.44	1648.61
482.65	1755.11
482.85	1718.25
483.06	1634.28
483.27	1640.42
483.47	1705.96
483.68	1681.38
483.89	1697.77
484.09	1712.10
484.30	1738.73
484.51	1841.12
484.71	1535.98
484.92	1748.97
485.13	1701.86
485.33	1624.04
485.54	1701.86
485.75	1681.38
485.95	1710.05
486.16	1722.34
486.37	1781.73
486.57	1669.09
486.78	1673.19
486.98	1740.77
487.19	1634.28
487.40	1755.11
487.60	1720.29
487.81	1683.43
488.02	1595.37
488.22	1763.30
488.43	1734.63
488.64	1687.53
488.84	1740.77
489.05	1722.34
489.25	1683.43
489.46	1796.07
489.67	1597.42
489.87	1746.92
490.08	1724.39
490.29	1607.66
490.49	1765.35
490.70	1718.25
490.90	1675.24
491.11	1728.49
491.32	1703.91
491.52	1683.43
491.73	1730.53
491.94	1654.76
492.14	1671.14
492.35	1705.96
492.55	1697.77
492.76	1660.90
492.97	1667.05
493.17	1687.53
493.38	1734.63
493.58	1755.11
493.79	1712.10
494.00	1777.64
494.20	1634.28
494.41	1705.96
494.61	1755.11
494.82	1734.63
495.02	1671.14
495.23	1742.82
495.44	1673.19
495.64	1781.73
495.85	1755.11
496.05	1703.91
496.26	1812.45
496.47	1757.16
496.67	1642.47
496.88	1679.33
497.08	1665.00
497.29	1673.19
497.49	1716.20
497.70	1650.66
497.91	1621.99
498.11	1744.87
498.32	1681.38
498.52	1736.68
498.73	1656.81
498.93	1759.21
499.14	1851.36
499.34	1759.21
499.55	1744.87
499.76	1632.23
499.96	1712.10
500.17	1693.67
500.37	1732.58
500.58	1640.42
500.78	1673.19
500.99	1642.47
501.19	1746.92
501.40	1763.30
501.60	1572.84
501.81	1781.73
502.02	1734.63
502.22	1701.86
502.43	1720.29
502.63	1918.95
502.84	1699.81
503.04	1712.10
503.25	1662.95
503.45	1699.81
503.66	1687.53
503.86	1738.73
504.07	1779.68
504.27	1593.32
504.48	1683.43
504.68	1607.66
504.89	1820.64
505.09	1591.27
505.30	1683.43
505.50	1634.28
505.71	1767.40
505.91	1753.06
506.12	1730.53
506.32	1697.77
506.53	1675.24
506.73	1646.57
506.94	1630.18
507.14	1644.52
507.35	1830.88
507.55	1712.10
507.76	1744.87
507.96	1660.90
508.17	1687.53
508.37	1648.61
508.58	1730.53
508.78	1716.20
508.99	1753.06
509.19	1753.06
509.40	1675.24
509.60	1708.01
509.81	1796.07
510.01	1746.92
510.22	1687.53
510.42	1685.48
510.63	1734.63
510.83	1683.43
511.04	1652.71
511.24	1660.90
511.44	1736.68
511.65	1710.05
511.85	1699.81
512.06	1701.86
512.26	1624.04
512.47	1781.73
512.67	1650.66
512.88	1728.49
513.08	1671.14
513.29	1822.69
513.49	1605.61
513.69	1652.71
513.90	1681.38
514.10	1773.54
514.31	1677.29
514.51	1660.90
514.72	1665.00
514.92	1679.33
515.13	1660.90
515.33	1667.05
515.53	1642.47
515.74	1806.31
515.94	1683.43
516.15	1812.45
516.35	1583.08
516.56	1669.09
516.76	1644.52
516.96	1589.22
517.17	1679.33
517.37	1761.25
517.58	1648.61
517.78	1691.62
517.99	1685.48
518.19	1746.92
518.39	1740.77
518.60	1859.56
518.80	1609.70
519.01	1759.21
519.21	1671.14
519.41	1779.68
519.62	1691.62
519.82	1708.01
520.03	1726.44
520.23	1685.48
520.43	1632.23
520.64	1791.97
520.84	1839.08
521.05	1630.18
521.25	1751.01
521.45	1783.78
521.66	1726.44
521.86	1718.25
522.07	1738.73
522.27	1701.86
522.47	1660.90
522.68	1730.53
522.88	1689.57
523.08	1785.83
523.29	1560.55
523.49	1695.72
523.70	1691.62
523.90	1689.57
524.10	1765.35
524.31	1665.00
524.51	1615.85
524.71	1730.53
524.92	1716.20
525.12	1576.94
525.33	1701.86
525.53	1665.00
525.73	1814.50
525.94	1681.38
526.14	1710.05
526.34	1619.94
526.55	1652.71
526.75	1699.81
526.95	1802.21
527.16	1679.33
527.36	1665.00
527.56	1742.82
527.77	1671.14
527.97	1699.81
528.17	1705.96
528.38	1675.24
528.58	1646.57
528.78	1671.14
528.99	1609.70
529.19	1665.00
529.39	1710.05
529.60	1640.42
529.80	1693.67
530.00	1615.85
530.21	1716.20
530.41	1699.81
530.61	1734.63
530.82	1724.39
531.02	1689.57
531.22	1677.29
531.43	1599.46
531.63	1753.06
531.83	1701.86
532.04	1751.01
532.24	1701.86
532.44	1662.95
532.64	1824.74
532.85	1667.05
533.05	1581.03
533.25	1708.01
533.46	1667.05
533.66	1773.54
533.86	1679.33
534.07	1712.10
534.27	1677.29
534.47	1748.97
534.67	1636.33
534.88	1656.81
535.08	1720.29
535.28	1701.86
535.49	1601.51
535.69	1812.45
535.89	1751.01
536.09	1804.26
536.30	1691.62
536.50	1642.47
536.70	1685.48
536.91	1605.61
537.11	1822.69
537.31	1728.49
537.51	1619.94
537.72	1734.63
537.92	1753.06
538.12	1769.44
538.32	1787.88
538.53	1787.88
538.73	1662.95
538.93	1662.95
539.13	1646.57
539.34	1832.93
539.54	1591.27
539.74	1736.68
539.94	1681.38
540.15	1828.84
540.35	1656.81
540.55	1626.09
540.75	1609.70
540.96	1712.10
541.16	1734.63
541.36	1685.48
541.56	1781.73
541.77	1771.49
541.97	1669.09
542.17	1644.52
542.37	1810.40
542.58	1652.71
542.78	1755.11
542.98	1687.53
543.18	1722.34
543.38	1773.54
543.59	1779.68
543.79	1638.38
543.99	1613.80
544.19	1712.10
544.40	1755.11
544.60	1640.42
544.80	1712.10
545.00	1570.79
545.20	1759.21
545.41	1720.29
545.61	1546.22
545.81	1716.20
546.01	1808.36
546.21	1638.38
546.42	1650.66
546.62	1818.60
546.82	1636.33
547.02	1699.81
547.22	1650.66
547.43	1708.01
547.63	1699.81
547.83	1662.95
548.03	1638.38
548.23	1718.25
548.44	1652.71
548.64	1613.80
548.84	1808.36
549.04	1642.47
549.24	1820.64
549.45	1986.53
549.65	1693.67
549.85	1716.20
550.05	1736.68
550.25	1564.65
550.45	1822.69
550.66	1722.34
550.86	1689.57
551.06	1695.72
551.26	1638.38
551.46	1615.85
551.66	1650.66
551.87	1777.64
552.07	1646.57
552.27	1683.43
552.47	1794.02
552.67	1687.53
552.87	1673.19
553.07	1738.73
553.28	1673.19
553.48	1697.77
553.68	1589.22
553.88	1777.64
554.08	1699.81
554.28	1650.66
554.48	1624.04
554.69	1691.62
554.89	1693.67
555.09	1621.99
555.29	1628.14
555.49	1691.62
555.69	1701.86
555.89	1695.72
556.10	1744.87
556.30	1630.18
556.50	1757.16
556.70	1705.96
556.90	1693.67
557.10	1773.54
557.30	1652.71
557.50	1636.33
557.70	1669.09
557.91	1714.15
558.11	1691.62
558.31	1841.12
558.51	1728.49
558.71	1648.61
558.91	1718.25
559.11	1681.38
559.31	1662.95
559.51	1656.81
559.72	1789.92
559.92	1525.74
560.12	1671.14
560.32	1738.73
560.52	1679.33
560.72	1638.38
560.92	1828.84
561.12	1695.72
561.32	1615.85
561.52	1609.70
561.72	1826.79
561.93	1787.88
562.13	1646.57
562.33	1675.24
562.53	1718.25
562.73	1673.19
562.93	1712.10
563.13	1703.91
563.33	1751.01
563.53	1781.73
563.73	1767.40
563.93	1767.40
564.13	1785.83
564.33	1812.45
564.53	1734.63
564.74	1695.72
564.94	1638.38
565.14	1660.90
565.34	1769.44
565.54	1667.05
565.74	1671.14
565.94	1667.05
566.14	1667.05
566.34	1716.20
566.54	1753.06
566.74	1671.14
566.94	1697.77
567.14	1693.67
567.34	1671.14
567.54	1699.81
567.74	1755.11
567.94	1710.05
568.14	1634.28
568.34	1767.40
568.54	1720.29
568.74	1685.48
568.94	1669.09
569.14	1789.92
569.34	1675.24
569.54	1673.19
569.75	1671.14
569.95	1742.82
570.15	1738.73
570.35	1720.29
570.55	1646.57
570.75	1691.62
570.95	1724.39
571.15	1826.79
571.35	1742.82
571.55	1681.38
571.75	1673.19
571.95	1646.57
572.15	1665.00
572.35	1689.57
572.55	1685.48
572.75	1679.33
572.95	1701.86
573.15	1691.62
573.35	1730.53
573.55	1693.67
573.75	1628.14
573.95	1818.60
574.15	1716.20
574.35	1716.20
574.55	1708.01
574.75	1675.24
574.95	1662.95
575.15	1617.90
575.34	1675.24
575.54	1718.25
575.74	1652.71
575.94	1708.01
576.14	1652.71
576.34	1763.30
576.54	1738.73
576.74	1775.59
576.94	1656.81
577.14	1654.76
577.34	1851.36
577.54	1669.09
577.74	1611.75
577.94	1665.00
578.14	1675.24
578.34	1834.98
578.54	1591.27
578.74	1708.01
578.94	1701.86
579.14	1736.68
579.34	1595.37
579.54	1748.97
579.74	1691.62
579.94	1671.14
580.13	1759.21
580.33	1720.29
580.53	1691.62
580.73	1701.86
580.93	1734.63
581.13	1648.61
581.33	1683.43
581.53	1708.01
581.73	1691.62
581.93	1613.80
582.13	1796.07
582.33	1746.92
582.53	1669.09
582.73	1673.19
582.92	1630.18
583.12	1785.83
583.32	1626.09
583.52	1621.99
583.72	1871.84
583.92	1755.11
584.12	1673.19
584.32	1726.44
584.52	1605.61
584.72	1613.80
584.92	1673.19
585.11	1773.54
585.31	1744.87
585.51	1742.82
585.71	1716.20
585.91	1783.78
586.11	1679.33
586.31	1634.28
586.51	1634.28
586.71	1634.28
586.91	1636.33
587.10	1759.21
587.30	1748.97
587.50	1740.77
587.70	1650.66
587.90	1736.68
588.10	1665.00
588.30	1679.33
588.50	1683.43
588.69	1650.66
588.89	1755.11
589.09	1734.63
589.29	1656.81
589.49	1736.68
589.69	1665.00
589.89	1693.67
590.08	1687.53
590.28	1695.72
590.48	1748.97
590.68	1658.85
590.88	1728.49
591.08	1814.50
591.28	1685.48
591.47	1634.28
591.67	1654.76
591.87	1658.85
592.07	1822.69
592.27	1593.32
592.47	1626.09
592.67	1712.10
592.86	1648.61
593.06	1724.39
593.26	1767.40
593.46	1736.68
593.66	1687.53
593.86	1683.43
594.05	1810.40
594.25	1705.96
594.45	1724.39
594.65	1822.69
594.85	1765.35
595.05	1753.06
595.24	1759.21
595.44	1697.77
595.64	1689.57
595.84	1701.86
596.04	1738.73
596.23	1605.61
596.43	1673.19
596.63	1681.38
596.83	1681.38
597.03	1828.84
597.22	1722.34
597.42	1660.90
597.62	1818.60
597.82	1732.58
598.02	1757.16
598.21	1699.81
598.41	1720.29
598.61	1722.34
598.81	1693.67
599.01	1705.96
599.20	1757.16
599.40	1665.00
599.60	1720.29
599.80	1716.20
600.00	1789.92
600.19	1693.67
600.39	1613.80
600.59	1755.11
600.79	1785.83
600.98	1689.57
601.18	1728.49
601.38	1748.97
601.58	1699.81
601.78	1830.88
601.97	1806.31
602.17	1751.01
602.37	1667.05
602.57	1740.77
602.76	1796.07
602.96	1603.56
603.16	1634.28
603.36	1808.36
603.55	1789.92
603.75	1720.29
603.95	1701.86
604.15	1796.07
604.34	1640.42
604.54	1779.68
604.74	1789.92
604.94	1708.01
605.13	1640.42
605.33	1712.10
605.53	1671.14
605.73	1716.20
605.92	1699.81
606.12	1683.43
606.32	1732.58
606.52	1863.65
606.71	1773.54
606.91	1681.38
607.11	1617.90
607.30	1728.49
607.50	1695.72
607.70	1863.65
607.90	1650.66
608.09	1597.42
608.29	1697.77
608.49	1847.27
608.68	1671.14
608.88	1660.90
609.08	1691.62
609.28	1716.20
609.47	1687.53
609.67	1691.62
609.87	1771.49
610.06	1697.77
610.26	1675.24
610.46	1861.60
610.66	1697.77
610.85	1642.47
611.05	1820.64
611.25	1665.00
611.44	1695.72
611.64	1716.20
611.84	1740.77
612.03	1720.29
612.23	1685.48
612.43	1744.87
612.62	1759.21
612.82	1769.44
613.02	1736.68
613.21	1773.54
613.41	1834.98
613.61	1658.85
613.80	1669.09
614.00	1675.24
614.20	1777.64
614.39	1802.21
614.59	1724.39
614.79	1648.61
614.98	1720.29
615.18	1583.08
615.38	1755.11
615.57	1675.24
615.77	1753.06
615.97	1705.96
616.16	1679.33
616.36	1724.39
616.56	1775.59
616.75	1724.39
616.95	1671.14
617.15	1822.69
617.34	1673.19
617.54	1837.03
617.74	1841.12
617.93	1853.41
618.13	1734.63
618.32	1755.11
618.52	1765.35
618.72	1640.42
618.91	1757.16
619.11	1773.54
619.31	1781.73
619.50	1644.52
619.70	1609.70
619.90	1757.16
620.09	1744.87
620.29	1757.16
620.48	1869.80
620.68	1697.77
620.88	1724.39
621.07	1798.12
621.27	1703.91
621.46	1720.29
621.66	1771.49
621.86	1738.73
622.05	1669.09
622.25	1785.83
622.44	1769.44
622.64	1671.14
622.84	1751.01
623.03	1634.28
623.23	1708.01
623.42	1769.44
623.62	1757.16
623.82	1794.02
624.01	1699.81
624.21	1779.68
624.40	1822.69
624.60	1732.58
624.80	1701.86
624.99	1771.49
625.19	1740.77
625.38	1734.63
625.58	1689.57
625.77	1722.34
625.97	1824.74
626.17	1720.29
626.36	1685.48
626.56	1806.31
626.75	1683.43
626.95	1757.16
627.14	1767.40
627.34	1736.68
627.54	1722.34
627.73	1779.68
627.93	1726.44
628.12	1796.07
628.32	1665.00
628.51	1748.97
628.71	1837.03
628.90	1732.58
629.10	1734.63
629.30	1710.05
629.49	1804.26
629.69	1689.57
629.88	1712.10
630.08	1746.92
630.27	1896.42
630.47	1761.25
630.66	1671.14
630.86	1726.44
631.05	1648.61
631.25	1740.77
631.44	1853.41
631.64	1615.85
631.84	1736.68
632.03	1830.88
632.23	1759.21
632.42	1722.34
632.62	1669.09
632.81	1710.05
633.01	1775.59
633.20	1824.74
633.40	1810.40
633.59	1757.16
633.79	1673.19
633.98	1724.39
634.18	1757.16
634.37	1806.31
634.57	1710.05
634.76	1607.66
634.96	1861.60
635.15	1867.75
635.35	1732.58
635.54	1736.68
635.74	1746.92
635.93	1652.71
636.13	1679.33
636.32	1804.26
636.52	1814.50
636.71	1701.86
636.91	1779.68
637.10	1789.92
637.30	1677.29
637.49	1724.39
637.69	1843.17
637.88	1738.73
638.08	1658.85
638.27	1624.04
638.46	1757.16
638.66	1775.59
638.85	1705.96
639.05	1826.79
639.24	1814.50
639.44	1710.05
639.63	1748.97
639.83	1705.96
640.02	1724.39
640.22	1691.62
640.41	1730.53
640.61	1732.58
640.80	1695.72
640.99	1703.91
641.19	1826.79
641.38	1748.97
641.58	1732.58
641.77	1689.57
641.97	1687.53
642.16	1656.81
642.36	1765.35
642.55	1802.21
642.74	1755.11
642.94	1722.34
643.13	1654.76
643.33	1802.21
643.52	1691.62
643.72	1794.02
643.91	1718.25
644.10	1845.22
644.30	1630.18
644.49	1794.02
644.69	1708.01
644.88	1755.11
645.08	1826.79
645.27	1785.83
645.46	1703.91
645.66	1832.93
645.85	1720.29
646.05	1714.15
646.24	1609.70
646.43	1691.62
646.63	1751.01
646.82	1669.09
647.02	1763.30
647.21	1828.84
647.40	1699.81
647.60	1677.29
647.79	1798.12
647.99	1703.91
648.18	1728.49
648.37	1722.34
648.57	1757.16
648.76	1714.15
648.96	1720.29
649.15	1652.71
649.34	1845.22
649.54	1716.20
649.73	1685.48
649.92	1773.54
650.12	1726.44
650.31	1681.38
650.51	2052.06
650.70	1808.36
650.89	1693.67
651.09	1785.83
651.28	1777.64
651.47	1640.42
651.67	1742.82
651.86	1798.12
652.06	1656.81
652.25	1804.26
652.44	1609.70
652.64	1734.63
652.83	1658.85
653.02	1755.11
653.22	1712.10
653.41	1718.25
653.60	1716.20
653.80	1626.09
653.99	1771.49
654.18	1744.87
654.38	1714.15
654.57	1814.50
654.76	1685.48
654.96	1703.91
655.15	1626.09
655.34	1708.01
655.54	1642.47
655.73	1687.53
655.92	1701.86
656.12	1777.64
656.31	1867.75
656.50	1830.88
656.70	1730.53
656.89	1677.29
657.08	1611.75
657.28	1712.10
657.47	1751.01
657.66	1626.09
657.86	1705.96
658.05	1753.06
658.24	1781.73
658.43	1775.59
658.63	1640.42
658.82	1800.16
659.01	1808.36
659.21	1789.92
659.40	1673.19
659.59	1705.96
659.79	1781.73
659.98	1882.08
660.17	1826.79
660.36	1789.92
660.56	1767.40
660.75	1746.92
660.94	1679.33
661.14	1683.43
661.33	1650.66
661.52	1665.00
661.71	1810.40
661.91	1656.81
662.10	1732.58
662.29	1656.81
662.49	1689.57
662.68	1642.47
662.87	1691.62
663.06	1845.22
663.26	1675.24
663.45	1880.04
663.64	1736.68
663.83	1722.34
664.03	1748.97
664.22	1695.72
664.41	1763.30
664.60	1828.84
664.80	1669.09
664.99	1839.08
665.18	1759.21
665.37	1800.16
665.57	1834.98
665.76	1738.73
665.95	1730.53
666.14	1732.58
666.34	1738.73
666.53	1718.25
666.72	1642.47
666.91	1738.73
667.11	1699.81
667.30	1830.88
667.49	1665.00
667.68	1804.26
667.87	1710.05
668.07	1771.49
668.26	1630.18
668.45	1642.47
668.64	1716.20
668.84	1804.26
669.03	1693.67
669.22	1773.54
669.41	1757.16
669.60	1667.05
669.80	1708.01
669.99	1679.33
670.18	1761.25
670.37	1816.55
670.57	1740.77
670.76	1765.35
670.95	1832.93
671.14	1695.72
671.33	1687.53
671.53	1810.40
671.72	1724.39
671.91	1728.49
672.10	1714.15
672.29	1675.24
672.48	1683.43
672.68	1740.77
672.87	1744.87
673.06	1736.68
673.25	1734.63
673.44	1607.66
673.64	1630.18
673.83	1804.26
674.02	1722.34
674.21	1789.92
674.40	1652.71
674.59	1611.75
674.79	1685.48
674.98	1888.23
675.17	1841.12
675.36	1677.29
675.55	1619.94
675.74	1746.92
675.94	1787.88
676.13	1757.16
676.32	1681.38
676.51	1775.59
676.70	1693.67
676.89	1681.38
677.08	1730.53
677.28	1794.02
677.47	1689.57
677.66	1751.01
677.85	1626.09
678.04	1650.66
678.23	1771.49
678.42	1738.73
678.62	1638.38
678.81	1687.53
679.00	1714.15
679.19	1796.07
679.38	1804.26
679.57	1699.81
679.76	1632.23
679.96	1759.21
680.15	1785.83
680.34	1669.09
680.53	1753.06
680.72	1781.73
680.91	1648.61
681.10	1732.58
681.29	1726.44
681.48	1843.17
681.68	1816.55
681.87	1769.44
682.06	1693.67
682.25	1744.87
682.44	1699.81
682.63	1826.79
682.82	1613.80
683.01	1851.36
683.20	1656.81
683.39	1789.92
683.59	1771.49
683.78	1699.81
683.97	1656.81
684.16	1673.19
684.35	1693.67
684.54	1757.16
684.73	1675.24
684.92	1691.62
685.11	1791.97
685.30	1753.06
685.49	1728.49
685.69	1834.98
685.88	1691.62
686.07	1609.70
686.26	1728.49
686.45	1714.15
686.64	1818.60
686.83	1771.49
687.02	1796.07
687.21	1794.02
687.40	1714.15
687.59	1898.47
687.78	1761.25
687.97	1818.60
688.16	1695.72
688.35	1718.25
688.54	1679.33
688.74	1519.59
688.93	1736.68
689.12	1683.43
689.31	1800.16
689.50	1812.45
689.69	1728.49
689.88	1697.77
690.07	1720.29
690.26	1751.01
690.45	1699.81
690.64	1718.25
690.83	1642.47
691.02	1699.81
691.21	1714.15
691.40	1683.43
691.59	1722.34
691.78	1789.92
691.97	1703.91
692.16	1708.01
692.35	1755.11
692.54	1822.69
692.73	1646.57
692.92	1789.92
693.11	1773.54
693.30	1818.60
693.49	1624.04
693.68	1816.55
693.87	1791.97
694.06	1628.14
694.25	1662.95
694.44	1703.91
694.63	1716.20
694.82	1654.76
695.01	1718.25
695.20	1718.25
695.39	1734.63
695.58	1671.14
695.77	1658.85
695.96	1710.05
696.15	1732.58
696.34	1705.96
696.53	1771.49
696.72	1705.96
696.91	1669.09
697.10	1794.02
697.29	1771.49
697.48	1857.51
697.67	1777.64
697.86	1642.47
698.05	1632.23
698.24	1712.10
698.43	1703.91
698.62	1787.88
698.81	1718.25
699.00	1738.73
699.19	1779.68
699.38	1769.44
699.57	1650.66
699.76	1695.72
699.95	1708.01
700.14	1716.20
700.32	1710.05
700.51	1716.20
700.70	1742.82
700.89	1851.36
701.08	1810.40
701.27	1621.99
701.46	1892.32
701.65	1724.39
701.84	1630.18
702.03	1708.01
702.22	1761.25
702.41	1851.36
702.60	1791.97
702.79	1689.57
702.98	1708.01
703.17	1802.21
703.35	1751.01
703.54	1624.04
703.73	1791.97
703.92	1628.14
704.11	1646.57
704.30	1732.58
704.49	1814.50
704.68	1665.00
704.87	1720.29
705.06	1820.64
705.25	1646.57
705.43	1667.05
705.62	1617.90
705.81	1759.21
706.00	1738.73
706.19	1814.50
706.38	1675.24
706.57	1806.31
706.76	1665.00
706.95	1781.73
707.14	1708.01
707.32	1712.10
707.51	1683.43
707.70	1685.48
707.89	1687.53
708.08	1744.87
708.27	1658.85
708.46	1753.06
708.65	1609.70
708.84	1832.93
709.02	1691.62
709.21	1773.54
709.40	1644.52
709.59	1654.76
709.78	1681.38
709.97	1673.19
710.16	1724.39
710.34	1746.92
710.53	1742.82
710.72	1656.81
710.91	1748.97
711.10	1679.33
711.29	1765.35
711.48	1773.54
711.66	1771.49
711.85	1794.02
712.04	1777.64
712.23	1609.70
712.42	1775.59
712.61	1757.16
712.80	1718.25
712.98	1669.09
713.17	1708.01
713.36	1736.68
713.55	1748.97
713.74	1720.29
713.93	1822.69
714.11	1703.91
714.30	1585.13
714.49	1726.44
714.68	1771.49
714.87	1611.75
715.06	1814.50
715.24	1796.07
715.43	1726.44
715.62	1726.44
715.81	1753.06
716.00	1708.01
716.18	1683.43
716.37	1726.44
716.56	1599.46
716.75	1705.96
716.94	1636.33
717.12	1744.87
717.31	1593.32
717.50	1679.33
717.69	1669.09
717.88	1671.14
718.06	1738.73
718.25	1708.01
718.44	1687.53
718.63	1777.64
718.82	1628.14
719.00	1724.39
719.19	1937.38
719.38	1683.43
719.57	1783.78
719.76	1650.66
719.94	1730.53
720.13	1679.33
720.32	1783.78
720.51	1740.77
720.69	1732.58
720.88	1740.77
721.07	1740.77
721.26	1765.35
721.44	1751.01
721.63	1761.25
721.82	1800.16
722.01	1746.92
722.20	1761.25
722.38	1710.05
722.57	1597.42
722.76	1736.68
722.95	1605.61
723.13	1654.76
723.32	1796.07
723.51	1685.48
723.70	1730.53
723.88	1781.73
724.07	1615.85
724.26	1753.06
724.44	1695.72
724.63	1789.92
724.82	1710.05
725.01	1615.85
725.19	1648.61
725.38	1773.54
725.57	1644.52
725.76	1718.25
725.94	1675.24
726.13	1589.22
726.32	1677.29
726.51	1679.33
726.69	1644.52
726.88	1634.28
727.07	1834.98
727.25	1699.81
727.44	1773.54
727.63	1703.91
727.82	1701.86
728.00	1683.43
728.19	1730.53
728.38	1679.33
728.56	1578.98
728.75	1773.54
728.94	1720.29
729.12	1738.73
729.31	1773.54
729.50	1738.73
729.69	1710.05
729.87	1681.38
730.06	1701.86
730.25	1650.66
730.43	1785.83
730.62	1648.61
730.81	1585.13
730.99	1816.55
731.18	1681.38
731.37	1767.40
731.55	1693.67
731.74	1773.54
731.93	1667.05
732.11	1640.42
732.30	1669.09
732.49	1765.35
732.67	1636.33
732.86	1705.96
733.05	1626.09
733.23	1775.59
733.42	1701.86
733.61	1732.58
733.79	1748.97
733.98	1759.21
734.17	1701.86
734.35	1751.01
734.54	1816.55
734.73	1738.73
734.91	1595.37
735.10	1693.67
735.29	1802.21
735.47	1558.50
735.66	1597.42
735.84	1763.30
736.03	1636.33
736.22	1687.53
736.40	1728.49
736.59	1632.23
736.78	1732.58
736.96	1695.72
737.15	1814.50
737.33	1736.68
737.52	1648.61
737.71	1740.77
737.89	1767.40
738.08	1691.62
738.27	1699.81
738.45	1767.40
738.64	1736.68
738.82	1658.85
739.01	1712.10
739.20	1732.58
739.38	1679.33
739.57	1759.21
739.75	1765.35
739.94	1703.91
740.13	1609.70
740.31	1748.97
740.50	1712.10
740.68	1699.81
740.87	1638.38
741.06	1730.53
741.24	1751.01
741.43	1646.57
741.61	1744.87
741.80	1689.57
741.99	1781.73
742.17	1751.01
742.36	1667.05
742.54	1748.97
742.73	1736.68
742.91	1687.53
743.10	1650.66
743.29	1681.38
743.47	1646.57
743.66	1609.70
743.84	1642.47
744.03	1722.34
744.21	1757.16
744.40	1740.77
744.59	1810.40
744.77	1628.14
744.96	1794.02
745.14	1632.23
745.33	1693.67
745.51	1746.92
745.70	1687.53
745.88	1697.77
746.07	1718.25
746.26	1687.53
746.44	1677.29
746.63	1634.28
746.81	1712.10
747.00	1781.73
747.18	1689.57
747.37	1617.90
747.55	1685.48
747.74	1949.67
747.92	1677.29
748.11	1728.49
748.29	1705.96
748.48	1681.38
748.66	1644.52
748.85	1703.91
749.03	1669.09
749.22	1654.76
749.41	1638.38
749.59	1755.11
749.78	1673.19
749.96	1621.99
750.15	1662.95
750.33	1757.16
750.52	1640.42
750.70	1732.58
750.89	1724.39
751.07	1703.91
751.26	1755.11
751.44	1607.66
751.63	1751.01
751.81	1695.72
752.00	1603.56
752.18	1746.92
752.37	1728.49
752.55	1697.77
752.74	1621.99
752.92	1722.34
753.10	1652.71
753.29	1699.81
753.47	1716.20
753.66	1589.22
753.84	1693.67
754.03	1583.08
754.21	1654.76
754.40	1734.63
754.58	1800.16
754.77	1748.97
754.95	1697.77
755.14	1681.38
755.32	1695.72
755.51	1581.03
755.69	1697.77
755.88	1599.46
756.06	1806.31
756.24	1632.23
756.43	1687.53
756.61	1806.31
756.80	1662.95
756.98	1675.24
757.17	1740.77
757.35	1683.43
757.54	1705.96
757.72	1624.04
757.90	1703.91
758.09	1636.33
758.27	1611.75
758.46	1701.86
758.64	1738.73
758.83	1679.33
759.01	1716.20
759.19	1806.31
759.38	1718.25
759.56	1785.83
759.75	1632.23
759.93	1783.78
760.12	1656.81
760.30	1689.57
760.48	1712.10
760.67	1746.92
760.85	1669.09
761.04	1705.96
761.22	1660.90
761.40	1679.33
761.59	1679.33
761.77	1691.62
761.96	1693.67
762.14	1812.45
762.32	1828.84
762.51	1646.57
762.69	1665.00
762.88	1732.58
763.06	1660.90
763.24	1597.42
763.43	1671.14
763.61	1634.28
763.80	1677.29
763.98	1783.78
764.16	1591.27
764.35	1650.66
764.53	1613.80
764.72	1695.72
764.90	1687.53
765.08	1677.29
765.27	1775.59
765.45	1603.56
765.63	1654.76
765.82	1654.76
766.00	1658.85
766.18	1632.23
766.37	1650.66
766.55	1624.04
766.74	1650.66
766.92	1621.99
767.10	1593.32
767.29	1820.64
767.47	1685.48
767.65	1658.85
767.84	1748.97
768.02	1843.17
768.20	1691.62
768.39	1703.91
768.57	1636.33
768.75	1679.33
768.94	1751.01
769.12	1683.43
769.30	1621.99
769.49	1720.29
769.67	1697.77
769.85	1789.92
770.04	1585.13
770.22	1687.53
770.40	1736.68
770.59	1683.43
770.77	1687.53
770.95	1759.21
771.14	1738.73
771.32	1658.85
771.50	1689.57
771.69	1603.56
771.87	1732.58
772.05	1671.14
772.24	1619.94
772.42	1734.63
772.60	1699.81
772.78	1724.39
772.97	1576.94
773.15	1748.97
773.33	1710.05
773.52	1656.81
773.70	1683.43
773.88	1744.87
774.07	1607.66
774.25	1693.67
774.43	1699.81
774.61	1720.29
774.80	1576.94
774.98	1675.24
775.16	1679.33
775.34	1751.01
775.53	1794.02
775.71	1734.63
775.89	1738.73
776.08	1675.24
776.26	1687.53
776.44	1705.96
776.62	1662.95
776.81	1730.53
776.99	1748.97
777.17	1728.49
777.35	1767.40
777.54	1710.05
777.72	1683.43
777.90	1689.57
778.08	1646.57
778.27	1695.72
778.45	1628.14
778.63	1744.87
778.81	1697.77
779.00	1716.20
779.18	1685.48
779.36	1816.55
779.54	1673.19
779.73	1675.24
779.91	1613.80
780.09	1593.32
780.27	1662.95
780.46	1736.68
780.64	1607.66
780.82	1669.09
781.00	1615.85
781.19	1529.83
781.37	1771.49
781.55	1753.06
781.73	1759.21
781.91	1613.80
782.10	1781.73
782.28	1716.20
782.46	1708.01
782.64	1828.84
782.82	1820.64
783.01	1675.24
783.19	1746.92
783.37	1650.66
783.55	1648.61
783.74	1712.10
783.92	1658.85
784.10	1681.38
784.28	1693.67
784.46	1775.59
784.64	1691.62
784.83	1757.16
785.01	1761.25
785.19	1855.46
785.37	1800.16
785.55	1621.99
785.74	1687.53
785.92	1687.53
786.10	1687.53
786.28	1794.02
786.46	1722.34
786.64	1695.72
786.83	1646.57
787.01	1656.81
787.19	1771.49
787.37	1738.73
787.55	1652.71
787.74	1626.09
787.92	1662.95
788.10	1697.77
788.28	1642.47
788.46	1589.22
788.64	1736.68
788.82	1691.62
789.01	1642.47
789.19	1699.81
789.37	1718.25
789.55	1630.18
789.73	1609.70
789.91	1703.91
790.09	1730.53
790.28	1669.09
790.46	1650.66
790.64	1695.72
790.82	1683.43
791.00	1683.43
791.18	1671.14
791.36	1708.01
791.55	1697.77
791.73	1695.72
791.91	1665.00
792.09	1675.24
792.27	1499.11
792.45	1644.52
792.63	1687.53
792.81	1759.21
793.00	1755.11
793.18	1746.92
793.36	1851.36
793.54	1708.01
793.72	1669.09
793.90	1718.25
794.08	1697.77
794.26	1648.61
794.44	1548.26
794.62	1587.18
794.81	1679.33
794.99	1705.96
795.17	1775.59
795.35	1640.42
795.53	1699.81
795.71	1699.81
795.89	1683.43
796.07	1665.00
796.25	1699.81
796.43	1722.34
796.61	1714.15
796.80	1591.27
796.98	1779.68
797.16	1669.09
797.34	1722.34
797.52	1665.00
797.70	1810.40
797.88	1726.44
798.06	1671.14
798.24	1781.73
798.42	1695.72
798.60	1763.30
798.78	1591.27
798.96	1744.87
799.14	1650.66
799.32	1740.77
799.51	1628.14
799.69	1650.66
799.87	1751.01
800.05	1720.29
800.23	1548.26
800.41	1646.57
800.59	1744.87
800.77	1585.13
800.95	1550.31
801.13	1685.48
801.31	1658.85
801.49	1843.17
801.67	1685.48
801.85	1540.07
802.03	1701.86
802.21	1681.38
802.39	1535.98
802.57	1712.10
802.75	1726.44
802.93	1675.24
803.11	1662.95
803.29	1630.18
803.47	1681.38
803.65	1646.57
803.83	1665.00
804.01	1746.92
804.19	1638.38
804.37	1699.81
804.55	1673.19
804.73	1609.70
804.91	1640.42
805.09	1662.95
805.27	1697.77
805.45	1646.57
805.63	1648.61
805.81	1722.34
805.99	1710.05
806.17	1726.44
806.35	1673.19
806.53	1642.47
806.71	1734.63
806.89	1652.71
807.07	1685.48
807.25	1695.72
807.43	1644.52
807.61	1763.30
807.79	1665.00
807.97	1681.38
808.15	1730.53
808.33	1683.43
808.51	1699.81
808.69	1689.57
808.87	1644.52
809.05	1609.70
809.23	1615.85
809.41	1587.18
809.59	1564.65
809.77	1728.49
809.95	1681.38
810.13	1697.77
810.31	1654.76
810.49	1724.39
810.67	1728.49
810.84	1667.05
811.02	1687.53
811.20	1630.18
811.38	1808.36
811.56	1572.84
811.74	1665.00
811.92	1613.80
812.10	1638.38
812.28	1716.20
812.46	1665.00
812.64	1753.06
812.82	1576.94
813.00	1644.52
813.18	1761.25
813.36	1740.77
813.53	1720.29
813.71	1781.73
813.89	1701.86
814.07	1578.98
814.25	1746.92
814.43	1656.81
814.61	1646.57
814.79	1675.24
814.97	1660.90
815.15	1732.58
815.33	1597.42
815.50	1611.75
815.68	1615.85
815.86	1691.62
816.04	1671.14
816.22	1636.33
816.40	1685.48
816.58	1626.09
816.76	1581.03
816.94	1689.57
817.11	1675.24
817.29	1705.96
817.47	1660.90
817.65	1695.72
817.83	1642.47
818.01	1685.48
818.19	1589.22
818.37	1708.01
818.54	1708.01
818.72	1650.66
818.90	1695.72
819.08	1748.97
819.26	1662.95
819.44	1748.97
819.62	1648.61
819.80	1595.37
819.97	1732.58
820.15	1693.67
820.33	1667.05
820.51	1652.71
820.69	1652.71
820.87	1646.57
821.05	1716.20
821.22	1583.08
821.40	1683.43
821.58	1757.16
821.76	1679.33
821.94	1583.08
822.12	1673.19
822.29	1738.73
822.47	1646.57
822.65	1581.03
822.83	1624.04
823.01	1726.44
823.19	1691.62
823.36	1615.85
823.54	1636.33
823.72	1730.53
823.90	1703.91
824.08	1662.95
824.25	1652.71
824.43	1652.71
824.61	1585.13
824.79	1650.66
824.97	1644.52
825.15	1675.24
825.32	1654.76
825.50	1763.30
825.68	1638.38
825.86	1677.29
826.04	1597.42
826.21	1740.77
826.39	1654.76
826.57	1673.19
826.75	1722.34
826.93	1671.14
827.10	1740.77
827.28	1681.38
827.46	1730.53
827.64	1679.33
827.81	1617.90
827.99	1615.85
828.17	1691.62
828.35	1601.51
828.53	1660.90
828.70	1732.58
828.88	1626.09
829.06	1699.81
829.24	1595.37
829.41	1746.92
829.59	1740.77
829.77	1640.42
829.95	1669.09
830.12	1572.84
830.30	1699.81
830.48	1722.34
830.66	1615.85
830.84	1685.48
831.01	1673.19
831.19	1585.13
831.37	1691.62
831.55	1683.43
831.72	1740.77
831.90	1697.77
832.08	1716.20
832.25	1708.01
832.43	1681.38
832.61	1628.14
832.79	1597.42
832.96	1687.53
833.14	1763.30
833.32	1744.87
833.50	1615.85
833.67	1658.85
833.85	1630.18
834.03	1599.46
834.20	1654.76
834.38	1748.97
834.56	1675.24
834.74	1626.09
834.91	1757.16
835.09	1738.73
835.27	1607.66
835.44	1671.14
835.62	1611.75
835.80	1626.09
835.98	1687.53
836.15	1753.06
836.33	1732.58
836.51	1576.94
836.68	1609.70
836.86	1585.13
837.04	1681.38
837.21	1773.54
837.39	1689.57
837.57	1810.40
837.75	1673.19
837.92	1624.04
838.10	1646.57
838.28	1658.85
838.45	1656.81
838.63	1648.61
838.81	1738.73
838.98	1691.62
839.16	1714.15
839.34	1667.05
839.51	1650.66
839.69	1626.09
839.87	1632.23
840.04	1679.33
840.22	1908.71
840.40	1615.85
840.57	1554.41
840.75	1699.81
840.93	1585.13
841.10	1710.05
841.28	1736.68
841.46	1640.42
841.63	1624.04
841.81	1656.81
841.98	1601.51
842.16	1796.07
842.34	1677.29
842.51	1531.88
842.69	1628.14
842.87	1613.80
843.04	1671.14
843.22	1603.56
843.40	1564.65
843.57	1615.85
843.75	1621.99
843.92	1642.47
844.10	1720.29
844.28	1708.01
844.45	1640.42
844.63	1689.57
844.81	1738.73
844.98	1738.73
845.16	1689.57
845.33	1708.01
845.51	1669.09
845.69	1681.38
845.86	1744.87
846.04	1615.85
846.21	1607.66
846.39	1597.42
846.57	1589.22
846.74	1628.14
846.92	1726.44
847.09	1605.61
847.27	1648.61
847.45	1695.72
847.62	1669.09
847.80	1667.05
847.97	1665.00
848.15	1632.23
848.32	1654.76
848.50	1650.66
848.68	1624.04
848.85	1675.24
849.03	1546.22
849.20	1607.66
849.38	1550.31
849.56	1644.52
849.73	1535.98
849.91	1652.71
850.08	1742.82
850.26	1611.75
850.43	1628.14
850.61	1757.16
850.78	1533.93
850.96	1705.96
851.14	1529.83
851.31	1820.64
851.49	1621.99
851.66	1732.58
851.84	1621.99
852.01	1701.86
852.19	1679.33
852.36	1720.29
852.54	1669.09
852.71	1593.32
852.89	1708.01
853.07	1652.71
853.24	1640.42
853.42	1703.91
853.59	1593.32
853.77	1619.94
853.94	1763.30
854.12	1722.34
854.29	1527.78
854.47	1675.24
854.64	1679.33
854.82	1632.23
854.99	1683.43
855.17	1615.85
855.34	1648.61
855.52	1658.85
855.69	1689.57
855.87	1581.03
856.04	1667.05
856.22	1714.15
856.39	1632.23
856.57	1699.81
856.74	1624.04
856.92	1699.81
857.09	1632.23
857.27	1652.71
857.44	1667.05
857.62	1697.77
857.79	1634.28
857.97	1757.16
858.14	1568.74
858.32	1654.76
858.49	1611.75
858.67	1720.29
858.84	1679.33
859.02	1697.77
859.19	1675.24
859.37	1626.09
859.54	1581.03
859.72	1628.14
859.89	1652.71
860.06	1544.17
860.24	1652.71
860.41	1705.96
860.59	1574.89
860.76	1660.90
860.94	1613.80
861.11	1658.85
861.29	1644.52
861.46	1617.90
861.64	1685.48
861.81	1736.68
861.98	1619.94
862.16	1611.75
862.33	1560.55
862.51	1658.85
862.68	1673.19
862.86	1667.05
863.03	1693.67
863.21	1646.57
863.38	1640.42
863.55	1628.14
863.73	1665.00
863.90	1689.57
864.08	1613.80
864.25	1685.48
864.43	1712.10
864.60	1638.38
864.77	1695.72
864.95	1658.85
865.12	1662.95
865.30	1714.15
865.47	1732.58
865.64	1671.14
865.82	1685.48
865.99	1724.39
866.17	1728.49
866.34	1705.96
866.51	1576.94
866.69	1669.09
866.86	1697.77
867.04	1748.97
867.21	1646.57
867.38	1568.74
867.56	1658.85
867.73	1689.57
867.91	1619.94
868.08	1716.20
868.25	1607.66
868.43	1599.46
868.60	1599.46
868.78	1621.99
868.95	1665.00
869.12	1687.53
869.30	1640.42
869.47	1701.86
869.64	1703.91
869.82	1609.70
869.99	1644.52
870.16	1732.58
870.34	1679.33
870.51	1794.02
870.69	1558.50
870.86	1671.14
871.03	1716.20
871.21	1587.18
871.38	1720.29
871.55	1630.18
871.73	1609.70
871.90	1621.99
872.07	1562.60
872.25	1499.11
872.42	1591.27
872.59	1607.66
872.77	1689.57
872.94	1705.96
873.11	1689.57
873.29	1687.53
873.46	1621.99
873.63	1691.62
873.81	1669.09
873.98	1650.66
874.15	1576.94
874.33	1654.76
874.50	1720.29
874.67	1699.81
874.85	1574.89
875.02	1681.38
875.19	1591.27
875.37	1617.90
875.54	1550.31
875.71	1679.33
875.88	1697.77
876.06	1708.01
876.23	1683.43
876.40	1632.23
876.58	1632.23
876.75	1703.91
876.92	1628.14
877.10	1662.95
877.27	1634.28
877.44	1636.33
877.61	1646.57
877.79	1720.29
877.96	1699.81
878.13	1648.61
878.31	1681.38
878.48	1730.53
878.65	1796.07
878.82	1630.18
879.00	1681.38
879.17	1671.14
879.34	1583.08
879.51	1617.90
879.69	1626.09
879.86	1572.84
880.03	1603.56
880.21	1597.42
880.38	1665.00
880.55	1724.39
880.72	1665.00
880.90	1609.70
881.07	1656.81
881.24	1691.62
881.41	1636.33
881.59	1695.72
881.76	1644.52
881.93	1789.92
882.10	1652.71
882.28	1624.04
882.45	1734.63
882.62	1687.53
882.79	1724.39
882.96	1576.94
883.14	1540.07
883.31	1642.47
883.48	1599.46
883.65	1671.14
883.83	1574.89
884.00	1624.04
884.17	1599.46
884.34	1687.53
884.51	1642.47
884.69	1628.14
884.86	1603.56
885.03	1640.42
885.20	1490.92
885.38	1748.97
885.55	1708.01
885.72	1665.00
885.89	1523.69
886.06	1652.71
886.24	1646.57
886.41	1632.23
886.58	1785.83
886.75	1751.01
886.92	1558.50
887.10	1585.13
887.27	1613.80
887.44	1763.30
887.61	1755.11
887.78	1744.87
887.95	1716.20
888.13	1564.65
888.30	1617.90
888.47	1683.43
888.64	1640.42
888.81	1716.20
888.99	1601.51
889.16	1761.25
889.33	1624.04
889.50	1667.05
889.67	1632.23
889.84	1722.34
890.01	1800.16
890.19	1716.20
890.36	1630.18
890.53	1689.57
890.70	1675.24
890.87	1716.20
891.04	1613.80
891.22	1658.85
891.39	1527.78
891.56	1675.24
891.73	1609.70
891.90	1673.19
892.07	1568.74
892.24	1658.85
892.42	1599.46
892.59	1642.47
892.76	1681.38
892.93	1560.55
893.10	1626.09
893.27	1734.63
893.44	1609.70
893.61	1656.81
893.79	1669.09
893.96	1671.14
894.13	1609.70
894.30	1566.70
894.47	1710.05
894.64	1736.68
894.81	1593.32
894.98	1650.66
895.15	1665.00
895.33	1708.01
895.50	1638.38
895.67	1601.51
895.84	1613.80
896.01	1693.67
896.18	1587.18
896.35	1720.29
896.52	1564.65
896.69	1665.00
896.86	1613.80
897.04	1673.19
897.21	1642.47
897.38	1712.10
897.55	1689.57
897.72	1683.43
897.89	1621.99
898.06	1693.67
898.23	1576.94
898.40	1796.07
898.57	1673.19
898.74	1642.47
898.91	1658.85
899.08	1650.66
899.26	1687.53
899.43	1759.21
899.60	1628.14
899.77	1652.71
899.94	1630.18
900.11	1628.14
900.28	1597.42
900.45	1595.37
900.62	1589.22
900.79	1642.47
900.96	1667.05
901.13	1576.94
901.30	1574.89
901.47	1576.94
901.64	1634.28
901.81	1662.95
901.98	1658.85
902.15	1691.62
902.32	1581.03
902.49	1689.57
902.66	1716.20
902.83	1716.20
903.01	1728.49
903.18	1648.61
903.35	1589.22
903.52	1642.47
903.69	1769.44
903.86	1685.48
904.03	1714.15
904.20	1687.53
904.37	1683.43
904.54	1566.70
904.71	1589.22
904.88	1667.05
905.05	1587.18
905.22	1671.14
905.39	1576.94
905.56	1626.09
905.73	1683.43
905.90	1634.28
906.07	1624.04
906.24	1650.66
906.41	1626.09
906.58	1679.33
906.75	1574.89
906.92	1599.46
907.09	1591.27
907.26	1728.49
907.43	1589.22
907.60	1630.18
907.77	1685.48
907.93	1695.72
908.10	1638.38
908.27	1751.01
908.44	1609.70
908.61	1626.09
908.78	1624.04
908.95	1697.77
909.12	1703.91
909.29	1640.42
909.46	1650.66
909.63	1632.23
909.80	1646.57
909.97	1640.42
910.14	1640.42
910.31	1638.38
910.48	1652.71
910.65	1642.47
910.82	1574.89
910.99	1583.08
911.16	1570.79
911.33	1581.03
911.50	1626.09
911.66	1601.51
911.83	1646.57
912.00	1503.21
912.17	1572.84
912.34	1578.98
912.51	1630.18
912.68	1662.95
912.85	1677.29
913.02	1785.83
913.19	1648.61
913.36	1699.81
913.53	1748.97
913.70	1630.18
913.86	1769.44
914.03	1650.66
914.20	1685.48
914.37	1652.71
914.54	1675.24
914.71	1681.38
914.88	1740.77
915.05	1572.84
915.22	1601.51
915.39	1615.85
915.55	1605.61
915.72	1621.99
915.89	1593.32
916.06	1634.28
916.23	1693.67
916.40	1634.28
916.57	1621.99
916.74	1746.92
916.91	1632.23
917.07	1560.55
917.24	1650.66
917.41	1652.71
917.58	1683.43
917.75	1576.94
917.92	1507.30
918.09	1597.42
918.26	1660.90
918.42	1628.14
918.59	1605.61
918.76	1679.33
918.93	1609.70
919.10	1624.04
919.27	1634.28
919.44	1742.82
919.60	1701.86
919.77	1675.24
919.94	1634.28
920.11	1697.77
920.28	1748.97
920.45	1619.94
920.61	1527.78
920.78	1697.77
920.95	1611.75
921.12	1662.95
921.29	1617.90
921.46	1587.18
921.62	1589.22
921.79	1656.81
921.96	1665.00
922.13	1683.43
922.30	1644.52
922.47	1624.04
922.63	1617.90
922.80	1646.57
922.97	1613.80
923.14	1554.41
923.31	1617.90
923.47	1660.90
923.64	1777.64
923.81	1662.95
923.98	1746.92
924.15	1593.32
924.32	1654.76
924.48	1710.05
924.65	1722.34
924.82	1466.35
924.99	1654.76
925.15	1585.13
925.32	1806.31
925.49	1576.94
925.66	1626.09
925.83	1656.81
925.99	1568.74
926.16	1662.95
926.33	1665.00
926.50	1585.13
926.67	1642.47
926.83	1591.27
927.00	1662.95
927.17	1697.77
927.34	1550.31
927.50	1669.09
927.67	1880.04
927.84	1767.40
928.01	1630.18
928.17	1720.29
928.34	1665.00
928.51	1630.18
928.68	1640.42
928.84	1642.47
929.01	1550.31
929.18	1601.51
929.35	1611.75
929.51	1665.00
929.68	1578.98
929.85	1646.57
930.02	1656.81
930.18	1562.60
930.35	1648.61
930.52	1583.08
930.69	1681.38
930.85	1665.00
931.02	1581.03
931.19	1775.59
931.36	1617.90
931.52	1722.34
931.69	1714.15
931.86	1624.04
932.02	1609.70
932.19	1640.42
932.36	1679.33
932.53	1695.72
932.69	1548.26
932.86	1710.05
933.03	1703.91
933.19	1591.27
933.36	1630.18
933.53	1697.77
933.70	1695.72
933.86	1671.14
934.03	1710.05
934.20	1544.17
934.36	1685.48
934.53	1605.61
934.70	1722.34
934.86	1671.14
935.03	1599.46
935.20	1621.99
935.36	1697.77
935.53	1609.70
935.70	1572.84
935.86	1621.99
936.03	1572.84
936.20	1542.12
936.36	1650.66
936.53	1619.94
936.70	1724.39
936.86	1794.02
937.03	1642.47
937.20	1501.16
937.36	1732.58
937.53	1601.51
937.70	1669.09
937.86	1632.23
938.03	1722.34
938.20	1736.68
938.36	1650.66
938.53	1720.29
938.70	1611.75
938.86	1574.89
939.03	1654.76
939.20	1589.22
939.36	1599.46
939.53	1609.70
939.70	1808.36
939.86	1578.98
940.03	1650.66
940.19	1560.55
940.36	1673.19
940.53	1665.00
940.69	1642.47
940.86	1708.01
941.03	1656.81
941.19	1535.98
941.36	1613.80
941.52	1689.57
941.69	1654.76
941.86	1683.43
942.02	1652.71
942.19	1687.53
942.35	1642.47
942.52	1638.38
942.69	1646.57
942.85	1630.18
943.02	1574.89
943.18	1714.15
943.35	1638.38
943.52	1687.53
943.68	1574.89
943.85	1705.96
944.01	1619.94
944.18	1624.04
944.35	1642.47
944.51	1636.33
944.68	1535.98
944.84	1708.01
945.01	1572.84
945.17	1615.85
945.34	1601.51
945.51	1667.05
945.67	1669.09
945.84	1681.38
946.00	1570.79
946.17	1642.47
946.33	1605.61
946.50	1740.77
946.67	1730.53
946.83	1638.38
947.00	1691.62
947.16	1636.33
947.33	1671.14
947.49	1656.81
947.66	1589.22
947.82	1634.28
947.99	1613.80
948.16	1689.57
948.32	1597.42
948.49	1701.86
948.65	1566.70
948.82	1660.90
948.98	1648.61
949.15	1564.65
949.31	1699.81
949.48	1654.76
949.64	1562.60
949.81	1587.18
949.97	1583.08
950.14	1718.25
950.30	1560.55
950.47	1636.33
950.63	1720.29
950.80	1630.18
950.96	1667.05
951.13	1679.33
951.30	1669.09
951.46	1691.62
951.63	1771.49
951.79	1615.85
951.96	1683.43
952.12	1650.66
952.29	1695.72
952.45	1601.51
952.62	1660.90
952.78	1675.24
952.94	1697.77
953.11	1724.39
953.27	1515.50
953.44	1701.86
953.60	1599.46
953.77	1689.57
953.93	1650.66
954.10	1656.81
954.26	1611.75
954.43	1650.66
954.59	1683.43
954.76	1773.54
954.92	1626.09
955.09	1652.71
955.25	1599.46
955.42	1511.40
955.58	1716.20
955.75	1724.39
955.91	1601.51
956.07	1626.09
956.24	1679.33
956.40	1636.33
956.57	1665.00
956.73	1607.66
956.90	1636.33
957.06	1609.70
957.23	1630.18
957.39	1652.71
957.56	1656.81
957.72	1515.50
957.88	1607.66
958.05	1785.83
958.21	1708.01
958.38	1665.00
958.54	1646.57
958.71	1810.40
958.87	1578.98
959.03	1583.08
959.20	1609.70
959.36	1619.94
959.53	1578.98
959.69	1488.87
959.85	1634.28
960.02	1607.66
960.18	1652.71
960.35	1654.76
960.51	1714.15
960.68	1632.23
960.84	1644.52
961.00	1607.66
961.17	1587.18
961.33	1613.80
961.50	1591.27
961.66	1646.57
961.82	1533.93
961.99	1634.28
962.15	1572.84
962.31	1634.28
962.48	1687.53
962.64	1585.13
962.81	1591.27
962.97	1578.98
963.13	1617.90
963.30	1646.57
963.46	1581.03
963.62	1597.42
963.79	1626.09
963.95	1634.28
964.12	1685.48
964.28	1609.70
964.44	1581.03
964.61	1636.33
964.77	1705.96
964.93	1783.78
965.10	1605.61
965.26	1630.18
965.42	1626.09
965.59	1527.78
965.75	1619.94
965.92	1687.53
966.08	1667.05
966.24	1599.46
966.41	1564.65
966.57	1679.33
966.73	1675.24
966.90	1621.99
967.06	1576.94
967.22	1640.42
967.39	1617.90
967.55	1599.46
967.71	1593.32
967.88	1654.76
968.04	1570.79
968.20	1572.84
968.37	1574.89
968.53	1648.61
968.69	1654.76
968.85	1609.70
969.02	1667.05
969.18	1734.63
969.34	1681.38
969.51	1669.09
969.67	1744.87
969.83	1558.50
970.00	1675.24
970.16	1665.00
970.32	1650.66
970.48	1748.97
970.65	1675.24
970.81	1642.47
970.97	1650.66
971.14	1558.50
971.30	1675.24
971.46	1568.74
971.63	1703.91
971.79	1757.16
971.95	1626.09
972.11	1609.70
972.28	1548.26
972.44	1746.92
972.60	1595.37
972.76	1617.90
972.93	1683.43
973.09	1689.57
973.25	1673.19
973.42	1624.04
973.58	1689.57
973.74	1621.99
973.90	1665.00
974.07	1636.33
974.23	1607.66
974.39	1728.49
974.55	1607.66
974.72	1601.51
974.88	1515.50
975.04	1652.71
975.20	1611.75
975.37	1675.24
975.53	1599.46
975.69	1597.42
975.85	1562.60
976.01	1626.09
976.18	1654.76
976.34	1597.42
976.50	1656.81
976.66	1759.21
976.83	1638.38
976.99	1556.46
977.15	1667.05
977.31	1554.41
977.47	1642.47
977.64	1607.66
977.80	1652.71
977.96	1656.81
978.12	1632.23
978.29	1562.60
978.45	1576.94
978.61	1624.04
978.77	1632.23
978.93	1574.89
979.10	1634.28
979.26	1605.61
979.42	1675.24
979.58	1544.17
979.74	1572.84
979.91	1777.64
980.07	1589.22
980.23	1658.85
980.39	1611.75
980.55	1640.42
980.71	1603.56
980.88	1587.18
981.04	1628.14
981.20	1660.90
981.36	1638.38
981.52	1658.85
981.68	1591.27
981.85	1652.71
982.01	1673.19
982.17	1640.42
982.33	1609.70
982.49	1726.44
982.65	1642.47
982.82	1669.09
982.98	1705.96
983.14	1597.42
983.30	1646.57
983.46	1626.09
983.62	1636.33
983.79	1634.28
983.95	1654.76
984.11	1562.60
984.27	1675.24
984.43	1617.90
984.59	1550.31
984.75	1720.29
984.91	1644.52
985.08	1650.66
985.24	1527.78
985.40	1589.22
985.56	1624.04
985.72	1654.76
985.88	1650.66
986.04	1568.74
986.20	1568.74
986.37	1642.47
986.53	1583.08
986.69	1576.94
986.85	1576.94
987.01	1509.35
987.17	1576.94
987.33	1550.31
987.49	1605.61
987.65	1718.25
987.82	1675.24
987.98	1568.74
988.14	1558.50
988.30	1626.09
988.46	1572.84
988.62	1617.90
988.78	1626.09
988.94	1658.85
989.10	1619.94
989.26	1560.55
989.42	1556.46
989.59	1578.98
989.75	1624.04
989.91	1681.38
990.07	1564.65
990.23	1544.17
990.39	1601.51
990.55	1646.57
990.71	1578.98
990.87	1691.62
991.03	1642.47
991.19	1624.04
991.35	1597.42
991.51	1626.09
991.67	1636.33
991.83	1568.74
992.00	1570.79
992.16	1642.47
992.32	1646.57
992.48	1621.99
992.64	1556.46
992.80	1671.14
992.96	1642.47
993.12	1587.18
993.28	1665.00
993.44	1683.43
993.60	1658.85
993.76	1615.85
993.92	1662.95
994.08	1667.05
994.24	1564.65
994.40	1648.61
994.56	1736.68
994.72	1630.18
994.88	1568.74
995.04	1619.94
995.20	1558.50
995.36	1535.98
995.52	1708.01
995.68	1656.81
995.84	1562.60
996.00	1716.20
996.16	1630.18
996.32	1583.08
996.48	1597.42
996.64	1746.92
996.80	1634.28
996.96	1595.37
997.12	1632.23
997.28	1626.09
997.44	1523.69
997.60	1679.33
997.76	1632.23
997.92	1632.23
998.08	1632.23
998.24	1540.07
998.40	1652.71
998.56	1697.77
998.72	1558.50
998.88	1519.59
999.04	1654.76
999.20	1691.62
999.36	1535.98
999.52	1667.05
999.68	1607.66
999.84	1701.86
1000.00	1646.57
1000.16	1759.21
1000.32	1615.85
1000.48	1695.72
1000.64	1550.31
1000.80	1548.26
1000.95	1515.50
1001.11	1634.28
1001.27	1490.92
1001.43	1652.71
1001.59	1587.18
1001.75	1619.94
1001.91	1628.14
1002.07	1519.59
1002.23	1507.30
1002.39	1667.05
1002.55	1585.13
1002.71	1583.08
1002.87	1593.32
1003.03	1593.32
1003.19	1519.59
1003.34	1691.62
1003.50	1593.32
1003.66	1642.47
1003.82	1695.72
1003.98	1578.98
1004.14	1593.32
1004.30	1648.61
1004.46	1574.89
1004.62	1535.98
1004.78	1626.09
1004.94	1617.90
1005.09	1630.18
1005.25	1697.77
1005.41	1669.09
1005.57	1679.33
1005.73	1617.90
1005.89	1607.66
1006.05	1626.09
1006.21	1726.44
1006.37	1558.50
1006.52	1550.31
1006.68	1564.65
1006.84	1697.77
1007.00	1617.90
1007.16	1630.18
1007.32	1585.13
1007.48	1642.47
1007.64	1675.24
1007.79	1609.70
1007.95	1603.56
1008.11	1662.95
1008.27	1603.56
1008.43	1691.62
1008.59	1607.66
1008.75	1695.72
1008.91	1597.42
1009.06	1585.13
1009.22	1632.23
1009.38	1560.55
1009.54	1675.24
1009.70	1591.27
1009.86	1654.76
1010.01	1714.15
1010.17	1568.74
1010.33	1591.27
1010.49	1648.61
1010.65	1697.77
1010.81	1550.31
1010.96	1601.51
1011.12	1501.16
1011.28	1570.79
1011.44	1617.90
1011.60	1617.90
1011.76	1552.36
1011.91	1613.80
1012.07	1544.17
1012.23	1517.54
1012.39	1525.74
1012.55	1667.05
1012.71	1599.46
1012.86	1531.88
1013.02	1605.61
1013.18	1644.52
1013.34	1591.27
1013.50	1640.42
1013.65	1621.99
1013.81	1568.74
1013.97	1599.46
1014.13	1630.18
1014.29	1589.22
1014.44	1703.91
1014.60	1619.94
1014.76	1650.66
1014.92	1640.42
1015.07	1611.75
1015.23	1683.43
1015.39	1499.11
1015.55	1556.46
1015.71	1619.94
1015.86	1581.03
1016.02	1607.66
1016.18	1558.50
1016.34	1652.71
1016.49	1650.66
1016.65	1597.42
1016.81	1630.18
1016.97	1634.28
1017.12	1695.72
1017.28	1572.84
1017.44	1556.46
1017.60	1605.61
1017.75	1632.23
1017.91	1626.09
1018.07	1642.47
1018.23	1599.46
1018.38	1581.03
1018.54	1660.90
1018.70	1613.80
1018.86	1527.78
1019.01	1562.60
1019.17	1624.04
1019.33	1705.96
1019.49	1632.23
1019.64	1585.13
1019.80	1693.67
1019.96	1738.73
1020.12	1667.05
1020.27	1568.74
1020.43	1585.13
1020.59	1597.42
1020.74	1656.81
1020.90	1617.90
1021.06	1574.89
1021.22	1595.37
1021.37	1576.94
1021.53	1589.22
1021.69	1621.99
1021.84	1572.84
1022.00	1613.80
1022.16	1632.23
1022.31	1576.94
1022.47	1638.38
1022.63	1671.14
1022.79	1566.70
1022.94	1574.89
1023.10	1734.63
1023.26	1621.99
1023.41	1587.18
1023.57	1556.46
1023.73	1648.61
1023.88	1689.57
1024.04	1642.47
1024.20	1591.27
1024.35	1583.08
1024.51	1642.47
1024.67	1556.46
1024.82	1613.80
1024.98	1533.93
1025.14	1642.47
1025.29	1636.33
1025.45	1703.91
1025.61	1544.17
1025.76	1650.66
1025.92	1585.13
1026.08	1695.72
1026.23	1619.94
1026.39	1673.19
1026.55	1597.42
1026.70	1576.94
1026.86	1621.99
1027.02	1683.43
1027.17	1638.38
1027.33	1701.86
1027.48	1617.90
1027.64	1648.61
1027.80	1642.47
1027.95	1701.86
1028.11	1556.46
1028.27	1710.05
1028.42	1658.85
1028.58	1642.47
1028.73	1556.46
1028.89	1527.78
1029.05	1720.29
1029.20	1619.94
>>>>>End Processed Spectral Data<<<<<
