SpectraSuite Data File
++++++++++++++++++++++++++++++++++++
Date: Fri Jun 02 14:47:53 CEST 2017
User: INFO_000
Dark Spectrum Present: No
Reference Spectrum Present: No
Number of Sampled Component Spectra: 1
Spectrometers: USB4H00879
Integration Time (usec): 80000 (USB4H00879)
Spectra Averaged: 1 (USB4H00879)
Boxcar Smoothing: 0 (USB4H00879)
Correct for Electrical Dark: No (USB4H00879)
Strobe/Lamp Enabled: No (USB4H00879)
Correct for Detector Non-linearity: No (USB4H00879)
Correct for Stray Light: No (USB4H00879)
Number of Pixels in Processed Spectrum: 3648
>>>>>Begin Processed Spectral Data<<<<<
345.13	1277.93
345.34	1277.93
345.56	1277.93
345.78	1269.74
345.99	1255.40
346.21	1759.21
346.42	1755.11
346.64	1619.94
346.86	1863.65
347.07	1679.33
347.29	1687.53
347.50	1632.23
347.72	1581.03
347.94	1808.36
348.15	1548.26
348.37	1583.08
348.59	1716.20
348.80	1656.81
349.02	1712.10
349.23	1765.35
349.45	1710.05
349.67	1726.44
349.88	1759.21
350.10	1773.54
350.31	1646.57
350.53	1654.76
350.75	1855.46
350.96	1634.28
351.18	1654.76
351.39	1808.36
351.61	1572.84
351.82	1814.50
352.04	1765.35
352.26	1740.77
352.47	1751.01
352.69	1718.25
352.90	1576.94
353.12	1714.15
353.34	1701.86
353.55	1765.35
353.77	1769.44
353.98	1636.33
354.20	1697.77
354.41	1769.44
354.63	1730.53
354.85	1814.50
355.06	1773.54
355.28	1601.51
355.49	1726.44
355.71	1708.01
355.92	1703.91
356.14	1789.92
356.35	1667.05
356.57	1634.28
356.79	1767.40
357.00	1624.04
357.22	1785.83
357.43	1615.85
357.65	1728.49
357.86	1712.10
358.08	1697.77
358.29	1763.30
358.51	1775.59
358.72	1757.16
358.94	1755.11
359.16	1736.68
359.37	1658.85
359.59	1767.40
359.80	1765.35
360.02	1705.96
360.23	1751.01
360.45	1742.82
360.66	1671.14
360.88	1646.57
361.09	1693.67
361.31	1757.16
361.52	1683.43
361.74	1728.49
361.95	1875.94
362.17	1658.85
362.38	1816.55
362.60	1728.49
362.81	1679.33
363.03	1658.85
363.24	1697.77
363.46	1763.30
363.67	1730.53
363.89	1710.05
364.10	1740.77
364.32	1699.81
364.53	1779.68
364.75	1621.99
364.96	1669.09
365.18	1660.90
365.39	1683.43
365.61	1634.28
365.82	1841.12
366.04	1693.67
366.25	1746.92
366.47	1685.48
366.68	1728.49
366.90	1650.66
367.11	1767.40
367.33	1740.77
367.54	1720.29
367.76	1605.61
367.97	1765.35
368.19	1621.99
368.40	1726.44
368.62	1634.28
368.83	1648.61
369.05	1701.86
369.26	1673.19
369.48	1648.61
369.69	1687.53
369.91	1681.38
370.12	1658.85
370.33	1785.83
370.55	1677.29
370.76	1687.53
370.98	1740.77
371.19	1642.47
371.41	1665.00
371.62	1685.48
371.84	1714.15
372.05	1765.35
372.27	1718.25
372.48	1679.33
372.69	1669.09
372.91	1738.73
373.12	1822.69
373.34	1689.57
373.55	1777.64
373.77	1742.82
373.98	1675.24
374.20	1787.88
374.41	1800.16
374.62	1621.99
374.84	1738.73
375.05	1759.21
375.27	1695.72
375.48	1650.66
375.70	1667.05
375.91	1755.11
376.12	1820.64
376.34	1683.43
376.55	1724.39
376.77	1705.96
376.98	1671.14
377.19	1693.67
377.41	1710.05
377.62	1703.91
377.84	1812.45
378.05	1773.54
378.27	1605.61
378.48	1843.17
378.69	1796.07
378.91	1765.35
379.12	1673.19
379.34	1683.43
379.55	1775.59
379.76	1732.58
379.98	1691.62
380.19	1720.29
380.41	1730.53
380.62	1759.21
380.83	1695.72
381.05	1677.29
381.26	1873.89
381.47	1624.04
381.69	1699.81
381.90	1920.99
382.12	1708.01
382.33	1734.63
382.54	1662.95
382.76	1701.86
382.97	1697.77
383.19	1646.57
383.40	1705.96
383.61	1675.24
383.83	1619.94
384.04	1642.47
384.25	1781.73
384.47	1773.54
384.68	1679.33
384.89	1671.14
385.11	1665.00
385.32	1605.61
385.54	1558.50
385.75	1689.57
385.96	1748.97
386.18	1718.25
386.39	1685.48
386.60	1677.29
386.82	1753.06
387.03	1722.34
387.24	1697.77
387.46	1665.00
387.67	1705.96
387.88	1677.29
388.10	1740.77
388.31	1687.53
388.52	1708.01
388.74	1757.16
388.95	1693.67
389.16	1728.49
389.38	1624.04
389.59	1732.58
389.80	1767.40
390.02	1748.97
390.23	1777.64
390.44	1689.57
390.66	1699.81
390.87	1585.13
391.08	1734.63
391.30	1781.73
391.51	1662.95
391.72	1722.34
391.94	1718.25
392.15	1658.85
392.36	1634.28
392.58	1650.66
392.79	1763.30
393.00	1728.49
393.22	1654.76
393.43	1718.25
393.64	1832.93
393.85	1730.53
394.07	1648.61
394.28	1691.62
394.49	1652.71
394.71	1716.20
394.92	1724.39
395.13	1736.68
395.35	1673.19
395.56	1617.90
395.77	1726.44
395.98	1673.19
396.20	1644.52
396.41	1724.39
396.62	1748.97
396.84	1632.23
397.05	1624.04
397.26	1665.00
397.47	1757.16
397.69	1669.09
397.90	1839.08
398.11	1757.16
398.32	1705.96
398.54	1708.01
398.75	1619.94
398.96	1603.56
399.18	1804.26
399.39	1669.09
399.60	1703.91
399.81	1695.72
400.03	1667.05
400.24	1892.32
400.45	1648.61
400.66	1697.77
400.88	1658.85
401.09	1906.66
401.30	1701.86
401.51	1837.03
401.73	1779.68
401.94	1789.92
402.15	1619.94
402.36	1822.69
402.58	1708.01
402.79	1771.49
403.00	1679.33
403.21	1728.49
403.43	1787.88
403.64	1806.31
403.85	1613.80
404.06	1699.81
404.27	1697.77
404.49	1724.39
404.70	1716.20
404.91	1759.21
405.12	1705.96
405.34	1740.77
405.55	1759.21
405.76	1572.84
405.97	1634.28
406.19	1789.92
406.40	1552.36
406.61	1687.53
406.82	1634.28
407.03	1691.62
407.25	1648.61
407.46	1855.46
407.67	1742.82
407.88	1773.54
408.09	1736.68
408.31	1705.96
408.52	1736.68
408.73	1712.10
408.94	1665.00
409.15	1656.81
409.37	1720.29
409.58	1781.73
409.79	1716.20
410.00	1769.44
410.21	1689.57
410.43	1714.15
410.64	1636.33
410.85	1767.40
411.06	1740.77
411.27	1740.77
411.48	1705.96
411.70	1738.73
411.91	1765.35
412.12	1796.07
412.33	1730.53
412.54	1685.48
412.76	1757.16
412.97	1765.35
413.18	1671.14
413.39	1720.29
413.60	1746.92
413.81	1800.16
414.03	1662.95
414.24	1687.53
414.45	1843.17
414.66	1607.66
414.87	1632.23
415.08	1650.66
415.30	1699.81
415.51	1755.11
415.72	1718.25
415.93	1630.18
416.14	1746.92
416.35	1705.96
416.56	1769.44
416.78	1757.16
416.99	1755.11
417.20	1787.88
417.41	1724.39
417.62	1722.34
417.83	1755.11
418.04	1724.39
418.26	1763.30
418.47	1642.47
418.68	1683.43
418.89	1738.73
419.10	1935.33
419.31	1763.30
419.52	1740.77
419.73	1744.87
419.95	1777.64
420.16	1673.19
420.37	1581.03
420.58	1800.16
420.79	1644.52
421.00	1642.47
421.21	1665.00
421.42	1634.28
421.63	1732.58
421.85	1693.67
422.06	1724.39
422.27	1730.53
422.48	1716.20
422.69	1761.25
422.90	1675.24
423.11	1658.85
423.32	1708.01
423.53	1773.54
423.75	1628.14
423.96	1726.44
424.17	1746.92
424.38	1765.35
424.59	1679.33
424.80	1693.67
425.01	1765.35
425.22	1585.13
425.43	1642.47
425.64	1757.16
425.85	1753.06
426.06	1703.91
426.28	1689.57
426.49	1613.80
426.70	1601.51
426.91	1652.71
427.12	1724.39
427.33	1658.85
427.54	1650.66
427.75	1738.73
427.96	1732.58
428.17	1695.72
428.38	1648.61
428.59	1634.28
428.80	1728.49
429.01	1675.24
429.23	1626.09
429.44	1642.47
429.65	1685.48
429.86	1736.68
430.07	1658.85
430.28	1646.57
430.49	1677.29
430.70	1767.40
430.91	1759.21
431.12	1609.70
431.33	1675.24
431.54	1810.40
431.75	1683.43
431.96	1693.67
432.17	1734.63
432.38	1689.57
432.59	1767.40
432.80	1777.64
433.01	1751.01
433.22	1634.28
433.43	1718.25
433.64	1746.92
433.85	1771.49
434.06	1746.92
434.27	1677.29
434.49	1687.53
434.70	1746.92
434.91	1726.44
435.12	1720.29
435.33	1660.90
435.54	1685.48
435.75	1650.66
435.96	1652.71
436.17	1667.05
436.38	1744.87
436.59	1675.24
436.80	1527.78
437.01	1771.49
437.22	1736.68
437.43	1603.56
437.64	1611.75
437.85	1771.49
438.06	1753.06
438.27	1724.39
438.48	1611.75
438.69	1724.39
438.90	1632.23
439.11	1593.32
439.32	1775.59
439.53	1658.85
439.74	1634.28
439.95	1726.44
440.16	1662.95
440.37	1808.36
440.57	1552.36
440.78	1665.00
440.99	1714.15
441.20	1761.25
441.41	1572.84
441.62	1607.66
441.83	1658.85
442.04	1591.27
442.25	1624.04
442.46	1540.07
442.67	1589.22
442.88	1877.99
443.09	1681.38
443.30	1621.99
443.51	1689.57
443.72	1683.43
443.93	1638.38
444.14	1753.06
444.35	1732.58
444.56	1730.53
444.77	1574.89
444.98	1759.21
445.19	1775.59
445.40	1710.05
445.61	1624.04
445.81	1634.28
446.02	1765.35
446.23	1710.05
446.44	1628.14
446.65	1626.09
446.86	1748.97
447.07	1927.14
447.28	1759.21
447.49	1695.72
447.70	1720.29
447.91	1746.92
448.12	1708.01
448.33	1726.44
448.54	1581.03
448.74	1767.40
448.95	1679.33
449.16	1695.72
449.37	1787.88
449.58	1691.62
449.79	1800.16
450.00	1626.09
450.21	1591.27
450.42	1718.25
450.63	1687.53
450.84	1677.29
451.05	1681.38
451.25	1681.38
451.46	1624.04
451.67	1761.25
451.88	1732.58
452.09	1652.71
452.30	1644.52
452.51	1636.33
452.72	1755.11
452.93	1800.16
453.13	1609.70
453.34	1609.70
453.55	1781.73
453.76	1652.71
453.97	1689.57
454.18	1648.61
454.39	1732.58
454.60	1667.05
454.81	1705.96
455.01	1650.66
455.22	1699.81
455.43	1638.38
455.64	1714.15
455.85	1773.54
456.06	1714.15
456.27	1701.86
456.48	1632.23
456.68	1699.81
456.89	1791.97
457.10	1697.77
457.31	1673.19
457.52	1650.66
457.73	1673.19
457.94	1738.73
458.14	1589.22
458.35	1746.92
458.56	1687.53
458.77	1691.62
458.98	1667.05
459.19	1732.58
459.39	1736.68
459.60	1685.48
459.81	1695.72
460.02	1646.57
460.23	1656.81
460.44	1650.66
460.65	1728.49
460.85	1687.53
461.06	1607.66
461.27	1736.68
461.48	1640.42
461.69	1660.90
461.89	1544.17
462.10	1638.38
462.31	1615.85
462.52	1654.76
462.73	1675.24
462.94	1759.21
463.14	1691.62
463.35	1689.57
463.56	1759.21
463.77	1691.62
463.98	1662.95
464.18	1683.43
464.39	1720.29
464.60	1697.77
464.81	1568.74
465.02	1705.96
465.23	1765.35
465.43	1671.14
465.64	1621.99
465.85	1589.22
466.06	1667.05
466.27	1718.25
466.47	1597.42
466.68	1755.11
466.89	1626.09
467.10	1648.61
467.30	1597.42
467.51	1724.39
467.72	1718.25
467.93	1560.55
468.14	1599.46
468.34	1675.24
468.55	1691.62
468.76	1830.88
468.97	1689.57
469.17	1644.52
469.38	1771.49
469.59	1673.19
469.80	1736.68
470.01	1644.52
470.21	1705.96
470.42	1640.42
470.63	1638.38
470.84	1708.01
471.04	1638.38
471.25	1759.21
471.46	1763.30
471.67	1781.73
471.87	1677.29
472.08	1777.64
472.29	1673.19
472.50	1779.68
472.70	1691.62
472.91	1589.22
473.12	1568.74
473.33	1654.76
473.53	1658.85
473.74	1648.61
473.95	1638.38
474.16	1650.66
474.36	1634.28
474.57	1697.77
474.78	1669.09
474.99	1751.01
475.19	1665.00
475.40	1769.44
475.61	1693.67
475.81	1746.92
476.02	1669.09
476.23	1736.68
476.44	1742.82
476.64	1630.18
476.85	1644.52
477.06	1689.57
477.27	1720.29
477.47	1695.72
477.68	1667.05
477.89	1705.96
478.09	1691.62
478.30	1748.97
478.51	1628.14
478.71	1628.14
478.92	1771.49
479.13	1687.53
479.34	1630.18
479.54	1699.81
479.75	1611.75
479.96	1677.29
480.16	1677.29
480.37	1716.20
480.58	1742.82
480.78	1773.54
480.99	1624.04
481.20	1734.63
481.41	1697.77
481.61	1617.90
481.82	1757.16
482.03	1609.70
482.23	1570.79
482.44	1796.07
482.65	1859.56
482.85	1753.06
483.06	1689.57
483.27	1677.29
483.47	1794.02
483.68	1646.57
483.89	1757.16
484.09	1763.30
484.30	1654.76
484.51	1771.49
484.71	1626.09
484.92	1673.19
485.13	1687.53
485.33	1630.18
485.54	1675.24
485.75	1806.31
485.95	1728.49
486.16	1708.01
486.37	1771.49
486.57	1671.14
486.78	1753.06
486.98	1726.44
487.19	1658.85
487.40	1802.21
487.60	1673.19
487.81	1697.77
488.02	1564.65
488.22	1695.72
488.43	1726.44
488.64	1576.94
488.84	1607.66
489.05	1710.05
489.25	1695.72
489.46	1617.90
489.67	1628.14
489.87	1789.92
490.08	1769.44
490.29	1560.55
490.49	1806.31
490.70	1755.11
490.90	1683.43
491.11	1738.73
491.32	1644.52
491.52	1640.42
491.73	1642.47
491.94	1685.48
492.14	1658.85
492.35	1624.04
492.55	1705.96
492.76	1669.09
492.97	1613.80
493.17	1679.33
493.38	1681.38
493.58	1785.83
493.79	1732.58
494.00	1626.09
494.20	1609.70
494.41	1679.33
494.61	1751.01
494.82	1660.90
495.02	1572.84
495.23	1644.52
495.44	1675.24
495.64	1787.88
495.85	1718.25
496.05	1699.81
496.26	1662.95
496.47	1671.14
496.67	1724.39
496.88	1685.48
497.08	1662.95
497.29	1621.99
497.49	1751.01
497.70	1712.10
497.91	1578.98
498.11	1808.36
498.32	1667.05
498.52	1728.49
498.73	1685.48
498.93	1742.82
499.14	1789.92
499.34	1810.40
499.55	1765.35
499.76	1679.33
499.96	1683.43
500.17	1748.97
500.37	1673.19
500.58	1681.38
500.78	1724.39
500.99	1636.33
501.19	1615.85
501.40	1730.53
501.60	1599.46
501.81	1583.08
502.02	1742.82
502.22	1638.38
502.43	1722.34
502.63	1732.58
502.84	1757.16
503.04	1710.05
503.25	1775.59
503.45	1714.15
503.66	1669.09
503.86	1751.01
504.07	1767.40
504.27	1646.57
504.48	1728.49
504.68	1728.49
504.89	1826.79
505.09	1617.90
505.30	1638.38
505.50	1732.58
505.71	1710.05
505.91	1771.49
506.12	1687.53
506.32	1675.24
506.53	1669.09
506.73	1644.52
506.94	1658.85
507.14	1626.09
507.35	1830.88
507.55	1679.33
507.76	1644.52
507.96	1689.57
508.17	1681.38
508.37	1597.42
508.58	1722.34
508.78	1812.45
508.99	1761.25
509.19	1742.82
509.40	1665.00
509.60	1714.15
509.81	1816.55
510.01	1718.25
510.22	1673.19
510.42	1775.59
510.63	1779.68
510.83	1646.57
511.04	1675.24
511.24	1800.16
511.44	1667.05
511.65	1671.14
511.85	1734.63
512.06	1781.73
512.26	1673.19
512.47	1740.77
512.67	1603.56
512.88	1716.20
513.08	1642.47
513.29	1679.33
513.49	1607.66
513.69	1679.33
513.90	1689.57
514.10	1714.15
514.31	1730.53
514.51	1673.19
514.72	1744.87
514.92	1677.29
515.13	1613.80
515.33	1677.29
515.53	1634.28
515.74	1710.05
515.94	1703.91
516.15	1716.20
516.35	1531.88
516.56	1603.56
516.76	1646.57
516.96	1607.66
517.17	1761.25
517.37	1658.85
517.58	1677.29
517.78	1683.43
517.99	1742.82
518.19	1822.69
518.39	1705.96
518.60	1771.49
518.80	1646.57
519.01	1759.21
519.21	1699.81
519.41	1691.62
519.62	1644.52
519.82	1679.33
520.03	1675.24
520.23	1691.62
520.43	1708.01
520.64	1787.88
520.84	1818.60
521.05	1669.09
521.25	1744.87
521.45	1708.01
521.66	1683.43
521.86	1665.00
522.07	1744.87
522.27	1646.57
522.47	1697.77
522.68	1636.33
522.88	1804.26
523.08	1746.92
523.29	1615.85
523.49	1669.09
523.70	1621.99
523.90	1642.47
524.10	1718.25
524.31	1638.38
524.51	1667.05
524.71	1744.87
524.92	1740.77
525.12	1585.13
525.33	1708.01
525.53	1746.92
525.73	1691.62
525.94	1638.38
526.14	1712.10
526.34	1658.85
526.55	1691.62
526.75	1679.33
526.95	1810.40
527.16	1679.33
527.36	1787.88
527.56	1673.19
527.77	1572.84
527.97	1740.77
528.17	1746.92
528.38	1689.57
528.58	1722.34
528.78	1722.34
528.99	1646.57
529.19	1656.81
529.39	1654.76
529.60	1601.51
529.80	1677.29
530.00	1673.19
530.21	1703.91
530.41	1619.94
530.61	1773.54
530.82	1740.77
531.02	1687.53
531.22	1718.25
531.43	1701.86
531.63	1644.52
531.83	1658.85
532.04	1796.07
532.24	1648.61
532.44	1667.05
532.64	1744.87
532.85	1652.71
533.05	1669.09
533.25	1642.47
533.46	1736.68
533.66	1693.67
533.86	1675.24
534.07	1755.11
534.27	1740.77
534.47	1777.64
534.67	1699.81
534.88	1607.66
535.08	1705.96
535.28	1697.77
535.49	1730.53
535.69	1785.83
535.89	1732.58
536.09	1791.97
536.30	1712.10
536.50	1744.87
536.70	1716.20
536.91	1761.25
537.11	1705.96
537.31	1683.43
537.51	1656.81
537.72	1673.19
537.92	1714.15
538.12	1839.08
538.32	1701.86
538.53	1710.05
538.73	1689.57
538.93	1650.66
539.13	1687.53
539.34	1703.91
539.54	1603.56
539.74	1767.40
539.94	1673.19
540.15	1724.39
540.35	1701.86
540.55	1646.57
540.75	1644.52
540.96	1697.77
541.16	1662.95
541.36	1732.58
541.56	1703.91
541.77	1791.97
541.97	1757.16
542.17	1654.76
542.37	1783.78
542.58	1732.58
542.78	1779.68
542.98	1712.10
543.18	1687.53
543.38	1746.92
543.59	1681.38
543.79	1640.42
543.99	1615.85
544.19	1675.24
544.40	1746.92
544.60	1662.95
544.80	1634.28
545.00	1613.80
545.20	1802.21
545.41	1716.20
545.61	1566.70
545.81	1693.67
546.01	1718.25
546.21	1708.01
546.42	1609.70
546.62	1798.12
546.82	1648.61
547.02	1730.53
547.22	1687.53
547.43	1781.73
547.63	1730.53
547.83	1716.20
548.03	1607.66
548.23	1746.92
548.44	1626.09
548.64	1634.28
548.84	1728.49
549.04	1718.25
549.24	1726.44
549.45	1820.64
549.65	1650.66
549.85	1615.85
550.05	1630.18
550.25	1599.46
550.45	1761.25
550.66	1726.44
550.86	1605.61
551.06	1714.15
551.26	1597.42
551.46	1732.58
551.66	1794.02
551.87	1798.12
552.07	1656.81
552.27	1697.77
552.47	1728.49
552.67	1701.86
552.87	1701.86
553.07	1640.42
553.28	1673.19
553.48	1671.14
553.68	1654.76
553.88	1765.35
554.08	1687.53
554.28	1626.09
554.48	1644.52
554.69	1673.19
554.89	1650.66
555.09	1619.94
555.29	1689.57
555.49	1667.05
555.69	1751.01
555.89	1724.39
556.10	1724.39
556.30	1669.09
556.50	1699.81
556.70	1761.25
556.90	1718.25
557.10	1769.44
557.30	1734.63
557.50	1628.14
557.70	1789.92
557.91	1695.72
558.11	1658.85
558.31	1738.73
558.51	1650.66
558.71	1708.01
558.91	1728.49
559.11	1607.66
559.31	1583.08
559.51	1695.72
559.72	1767.40
559.92	1675.24
560.12	1597.42
560.32	1767.40
560.52	1710.05
560.72	1665.00
560.92	1787.88
561.12	1755.11
561.32	1650.66
561.52	1617.90
561.72	1843.17
561.93	1796.07
562.13	1634.28
562.33	1740.77
562.53	1652.71
562.73	1689.57
562.93	1652.71
563.13	1673.19
563.33	1773.54
563.53	1839.08
563.73	1738.73
563.93	1730.53
564.13	1853.41
564.33	1691.62
564.53	1708.01
564.74	1589.22
564.94	1763.30
565.14	1671.14
565.34	1677.29
565.54	1656.81
565.74	1658.85
565.94	1632.23
566.14	1675.24
566.34	1652.71
566.54	1714.15
566.74	1689.57
566.94	1703.91
567.14	1701.86
567.34	1705.96
567.54	1708.01
567.74	1759.21
567.94	1646.57
568.14	1660.90
568.34	1832.93
568.54	1718.25
568.74	1691.62
568.94	1748.97
569.14	1775.59
569.34	1716.20
569.54	1665.00
569.75	1683.43
569.95	1699.81
570.15	1775.59
570.35	1667.05
570.55	1634.28
570.75	1613.80
570.95	1667.05
571.15	1730.53
571.35	1689.57
571.55	1683.43
571.75	1736.68
571.95	1697.77
572.15	1705.96
572.35	1693.67
572.55	1697.77
572.75	1695.72
572.95	1593.32
573.15	1755.11
573.35	1695.72
573.55	1679.33
573.75	1642.47
573.95	1748.97
574.15	1736.68
574.35	1656.81
574.55	1710.05
574.75	1697.77
574.95	1691.62
575.15	1724.39
575.34	1689.57
575.54	1640.42
575.74	1640.42
575.94	1732.58
576.14	1626.09
576.34	1728.49
576.54	1685.48
576.74	1763.30
576.94	1689.57
577.14	1677.29
577.34	1765.35
577.54	1642.47
577.74	1589.22
577.94	1658.85
578.14	1626.09
578.34	1718.25
578.54	1605.61
578.74	1679.33
578.94	1621.99
579.14	1679.33
579.34	1529.83
579.54	1728.49
579.74	1677.29
579.94	1683.43
580.13	1675.24
580.33	1693.67
580.53	1632.23
580.73	1728.49
580.93	1722.34
581.13	1703.91
581.33	1697.77
581.53	1769.44
581.73	1712.10
581.93	1581.03
582.13	1679.33
582.33	1699.81
582.53	1621.99
582.73	1738.73
582.92	1677.29
583.12	1767.40
583.32	1687.53
583.52	1712.10
583.72	1728.49
583.92	1779.68
584.12	1679.33
584.32	1716.20
584.52	1593.32
584.72	1679.33
584.92	1632.23
585.11	1667.05
585.31	1724.39
585.51	1716.20
585.71	1744.87
585.91	1802.21
586.11	1708.01
586.31	1679.33
586.51	1609.70
586.71	1732.58
586.91	1724.39
587.10	1765.35
587.30	1757.16
587.50	1652.71
587.70	1621.99
587.90	1638.38
588.10	1656.81
588.30	1679.33
588.50	1597.42
588.69	1728.49
588.89	1746.92
589.09	1808.36
589.29	1669.09
589.49	1599.46
589.69	1644.52
589.89	1658.85
590.08	1617.90
590.28	1595.37
590.48	1691.62
590.68	1730.53
590.88	1724.39
591.08	1710.05
591.28	1634.28
591.47	1708.01
591.67	1621.99
591.87	1665.00
592.07	1771.49
592.27	1656.81
592.47	1548.26
592.67	1714.15
592.86	1687.53
593.06	1773.54
593.26	1746.92
593.46	1730.53
593.66	1679.33
593.86	1791.97
594.05	1683.43
594.25	1679.33
594.45	1724.39
594.65	1775.59
594.85	1693.67
595.05	1667.05
595.24	1640.42
595.44	1626.09
595.64	1650.66
595.84	1679.33
596.04	1648.61
596.23	1710.05
596.43	1673.19
596.63	1716.20
596.83	1570.79
597.03	1802.21
597.22	1650.66
597.42	1695.72
597.62	1710.05
597.82	1691.62
598.02	1765.35
598.21	1621.99
598.41	1646.57
598.61	1683.43
598.81	1714.15
599.01	1734.63
599.20	1658.85
599.40	1658.85
599.60	1705.96
599.80	1746.92
600.00	1832.93
600.19	1771.49
600.39	1646.57
600.59	1724.39
600.79	1705.96
600.98	1755.11
601.18	1728.49
601.38	1751.01
601.58	1681.38
601.78	1748.97
601.97	1771.49
602.17	1761.25
602.37	1662.95
602.57	1751.01
602.76	1718.25
602.96	1603.56
603.16	1712.10
603.36	1712.10
603.55	1697.77
603.75	1638.38
603.95	1693.67
604.15	1716.20
604.34	1624.04
604.54	1712.10
604.74	1740.77
604.94	1699.81
605.13	1677.29
605.33	1667.05
605.53	1652.71
605.73	1785.83
605.92	1691.62
606.12	1644.52
606.32	1697.77
606.52	1722.34
606.71	1681.38
606.91	1716.20
607.11	1642.47
607.30	1728.49
607.50	1724.39
607.70	1832.93
607.90	1648.61
608.09	1595.37
608.29	1732.58
608.49	1804.26
608.68	1626.09
608.88	1699.81
609.08	1662.95
609.28	1695.72
609.47	1753.06
609.67	1687.53
609.87	1685.48
610.06	1806.31
610.26	1710.05
610.46	1748.97
610.66	1644.52
610.85	1638.38
611.05	1736.68
611.25	1773.54
611.44	1634.28
611.64	1593.32
611.84	1677.29
612.03	1650.66
612.23	1621.99
612.43	1720.29
612.62	1732.58
612.82	1755.11
613.02	1789.92
613.21	1665.00
613.41	1732.58
613.61	1630.18
613.80	1615.85
614.00	1683.43
614.20	1775.59
614.39	1662.95
614.59	1759.21
614.79	1621.99
614.98	1748.97
615.18	1693.67
615.38	1667.05
615.57	1583.08
615.77	1806.31
615.97	1697.77
616.16	1665.00
616.36	1751.01
616.56	1708.01
616.75	1714.15
616.95	1599.46
617.15	1824.74
617.34	1705.96
617.54	1824.74
617.74	1826.79
617.93	1771.49
618.13	1724.39
618.32	1644.52
618.52	1748.97
618.72	1591.27
618.91	1748.97
619.11	1748.97
619.31	1728.49
619.50	1630.18
619.70	1621.99
619.90	1673.19
620.09	1714.15
620.29	1648.61
620.48	1781.73
620.68	1755.11
620.88	1736.68
621.07	1806.31
621.27	1589.22
621.46	1746.92
621.66	1767.40
621.86	1728.49
622.05	1607.66
622.25	1769.44
622.44	1714.15
622.64	1771.49
622.84	1691.62
623.03	1634.28
623.23	1585.13
623.42	1746.92
623.62	1675.24
623.82	1787.88
624.01	1716.20
624.21	1675.24
624.40	1816.55
624.60	1609.70
624.80	1665.00
624.99	1726.44
625.19	1773.54
625.38	1742.82
625.58	1728.49
625.77	1703.91
625.97	1687.53
626.17	1636.33
626.36	1646.57
626.56	1660.90
626.75	1652.71
626.95	1722.34
627.14	1738.73
627.34	1683.43
627.54	1716.20
627.73	1757.16
627.93	1720.29
628.12	1638.38
628.32	1720.29
628.51	1673.19
628.71	1732.58
628.90	1712.10
629.10	1716.20
629.30	1777.64
629.49	1773.54
629.69	1660.90
629.88	1658.85
630.08	1804.26
630.27	1847.27
630.47	1744.87
630.66	1667.05
630.86	1748.97
631.05	1693.67
631.25	1691.62
631.44	1794.02
631.64	1714.15
631.84	1648.61
632.03	1789.92
632.23	1724.39
632.42	1685.48
632.62	1650.66
632.81	1697.77
633.01	1660.90
633.20	1798.12
633.40	1761.25
633.59	1656.81
633.79	1673.19
633.98	1759.21
634.18	1693.67
634.37	1781.73
634.57	1675.24
634.76	1654.76
634.96	1769.44
635.15	1843.17
635.35	1722.34
635.54	1730.53
635.74	1669.09
635.93	1607.66
636.13	1683.43
636.32	1757.16
636.52	1667.05
636.71	1658.85
636.91	1640.42
637.10	1765.35
637.30	1621.99
637.49	1720.29
637.69	1761.25
637.88	1617.90
638.08	1628.14
638.27	1656.81
638.46	1593.32
638.66	1624.04
638.85	1646.57
639.05	1757.16
639.24	1800.16
639.44	1751.01
639.63	1738.73
639.83	1794.02
640.02	1650.66
640.22	1722.34
640.41	1619.94
640.61	1751.01
640.80	1708.01
640.99	1695.72
641.19	1808.36
641.38	1761.25
641.58	1738.73
641.77	1746.92
641.97	1621.99
642.16	1632.23
642.36	1728.49
642.55	1667.05
642.74	1757.16
642.94	1685.48
643.13	1613.80
643.33	1753.06
643.52	1695.72
643.72	1681.38
643.91	1550.31
644.10	1722.34
644.30	1638.38
644.49	1654.76
644.69	1763.30
644.88	1730.53
645.08	1708.01
645.27	1724.39
645.46	1646.57
645.66	1765.35
645.85	1716.20
646.05	1740.77
646.24	1609.70
646.43	1689.57
646.63	1671.14
646.82	1652.71
647.02	1689.57
647.21	1802.21
647.40	1683.43
647.60	1679.33
647.79	1767.40
647.99	1691.62
648.18	1654.76
648.37	1791.97
648.57	1722.34
648.76	1685.48
648.96	1599.46
649.15	1654.76
649.34	1789.92
649.54	1759.21
649.73	1640.42
649.92	1667.05
650.12	1718.25
650.31	1660.90
650.51	1912.80
650.70	1691.62
650.89	1718.25
651.09	1763.30
651.28	1775.59
651.47	1581.03
651.67	1728.49
651.86	1804.26
652.06	1638.38
652.25	1710.05
652.44	1630.18
652.64	1722.34
652.83	1769.44
653.02	1708.01
653.22	1748.97
653.41	1658.85
653.60	1605.61
653.80	1589.22
653.99	1687.53
654.18	1603.56
654.38	1644.52
654.57	1681.38
654.76	1712.10
654.96	1705.96
655.15	1652.71
655.34	1740.77
655.54	1636.33
655.73	1609.70
655.92	1675.24
656.12	1628.14
656.31	1740.77
656.50	1802.21
656.70	1677.29
656.89	1615.85
657.08	1626.09
657.28	1726.44
657.47	1679.33
657.66	1587.18
657.86	1720.29
658.05	1738.73
658.24	1755.11
658.43	1794.02
658.63	1640.42
658.82	1753.06
659.01	1757.16
659.21	1785.83
659.40	1626.09
659.59	1665.00
659.79	1605.61
659.98	1765.35
660.17	1730.53
660.36	1722.34
660.56	1759.21
660.75	1658.85
660.94	1644.52
661.14	1652.71
661.33	1638.38
661.52	1691.62
661.71	1744.87
661.91	1703.91
662.10	1748.97
662.29	1644.52
662.49	1660.90
662.68	1599.46
662.87	1683.43
663.06	1703.91
663.26	1699.81
663.45	1867.75
663.64	1687.53
663.83	1785.83
664.03	1771.49
664.22	1687.53
664.41	1880.04
664.60	1757.16
664.80	1587.18
664.99	1712.10
665.18	1646.57
665.37	1757.16
665.57	1738.73
665.76	1665.00
665.95	1742.82
666.14	1691.62
666.34	1724.39
666.53	1724.39
666.72	1675.24
666.91	1730.53
667.11	1695.72
667.30	1912.80
667.49	1697.77
667.68	1773.54
667.87	1718.25
668.07	1816.55
668.26	1658.85
668.45	1669.09
668.64	1658.85
668.84	1658.85
669.03	1755.11
669.22	1779.68
669.41	1656.81
669.60	1628.14
669.80	1800.16
669.99	1693.67
670.18	1662.95
670.37	1880.04
670.57	1738.73
670.76	1708.01
670.95	1814.50
671.14	1687.53
671.33	1705.96
671.53	1718.25
671.72	1753.06
671.91	1755.11
672.10	1673.19
672.29	1771.49
672.48	1609.70
672.68	1624.04
672.87	1630.18
673.06	1673.19
673.25	1679.33
673.44	1574.89
673.64	1617.90
673.83	1683.43
674.02	1689.57
674.21	1781.73
674.40	1699.81
674.59	1693.67
674.79	1722.34
674.98	1748.97
675.17	1718.25
675.36	1634.28
675.55	1691.62
675.74	1687.53
675.94	1769.44
676.13	1757.16
676.32	1687.53
676.51	1699.81
676.70	1576.94
676.89	1675.24
677.08	1699.81
677.28	1789.92
677.47	1695.72
677.66	1658.85
677.85	1665.00
678.04	1710.05
678.23	1806.31
678.42	1685.48
678.62	1681.38
678.81	1677.29
679.00	1671.14
679.19	1826.79
679.38	1730.53
679.57	1710.05
679.76	1683.43
679.96	1683.43
680.15	1746.92
680.34	1605.61
680.53	1777.64
680.72	1714.15
680.91	1685.48
681.10	1679.33
681.29	1734.63
681.48	1763.30
681.68	1703.91
681.87	1769.44
682.06	1693.67
682.25	1779.68
682.44	1613.80
682.63	1826.79
682.82	1523.69
683.01	1751.01
683.20	1689.57
683.39	1757.16
683.59	1658.85
683.78	1677.29
683.97	1671.14
684.16	1675.24
684.35	1589.22
684.54	1687.53
684.73	1675.24
684.92	1619.94
685.11	1730.53
685.30	1650.66
685.49	1642.47
685.69	1853.41
685.88	1689.57
686.07	1613.80
686.26	1599.46
686.45	1632.23
686.64	1804.26
686.83	1699.81
687.02	1732.58
687.21	1746.92
687.40	1724.39
687.59	1658.85
687.78	1658.85
687.97	1808.36
688.16	1740.77
688.35	1712.10
688.54	1638.38
688.74	1513.45
688.93	1710.05
689.12	1615.85
689.31	1849.32
689.50	1695.72
689.69	1667.05
689.88	1673.19
690.07	1712.10
690.26	1677.29
690.45	1654.76
690.64	1693.67
690.83	1611.75
691.02	1716.20
691.21	1703.91
691.40	1740.77
691.59	1679.33
691.78	1726.44
691.97	1634.28
692.16	1652.71
692.35	1712.10
692.54	1798.12
692.73	1652.71
692.92	1746.92
693.11	1738.73
693.30	1771.49
693.49	1675.24
693.68	1712.10
693.87	1773.54
694.06	1621.99
694.25	1650.66
694.44	1726.44
694.63	1632.23
694.82	1583.08
695.01	1714.15
695.20	1654.76
695.39	1572.84
695.58	1716.20
695.77	1644.52
695.96	1679.33
696.15	1712.10
696.34	1650.66
696.53	1701.86
696.72	1677.29
696.91	1667.05
697.10	1748.97
697.29	1624.04
697.48	1804.26
697.67	1755.11
697.86	1667.05
698.05	1658.85
698.24	1656.81
698.43	1687.53
698.62	1720.29
698.81	1640.42
699.00	1691.62
699.19	1748.97
699.38	1734.63
699.57	1669.09
699.76	1720.29
699.95	1691.62
700.14	1593.32
700.32	1683.43
700.51	1681.38
700.70	1708.01
700.89	1781.73
701.08	1734.63
701.27	1615.85
701.46	1761.25
701.65	1701.86
701.84	1624.04
702.03	1591.27
702.22	1826.79
702.41	1699.81
702.60	1726.44
702.79	1691.62
702.98	1636.33
703.17	1722.34
703.35	1710.05
703.54	1675.24
703.73	1708.01
703.92	1650.66
704.11	1654.76
704.30	1683.43
704.49	1761.25
704.68	1644.52
704.87	1736.68
705.06	1748.97
705.25	1665.00
705.43	1640.42
705.62	1710.05
705.81	1779.68
706.00	1728.49
706.19	1703.91
706.38	1650.66
706.57	1755.11
706.76	1628.14
706.95	1638.38
707.14	1777.64
707.32	1660.90
707.51	1626.09
707.70	1621.99
707.89	1654.76
708.08	1697.77
708.27	1705.96
708.46	1697.77
708.65	1585.13
708.84	1761.25
709.02	1718.25
709.21	1566.70
709.40	1652.71
709.59	1705.96
709.78	1673.19
709.97	1712.10
710.16	1755.11
710.34	1646.57
710.53	1644.52
710.72	1679.33
710.91	1732.58
711.10	1611.75
711.29	1687.53
711.48	1687.53
711.66	1703.91
711.85	1654.76
712.04	1746.92
712.23	1691.62
712.42	1734.63
712.61	1796.07
712.80	1609.70
712.98	1665.00
713.17	1630.18
713.36	1742.82
713.55	1742.82
713.74	1710.05
713.93	1689.57
714.11	1626.09
714.30	1566.70
714.49	1765.35
714.68	1687.53
714.87	1683.43
715.06	1763.30
715.24	1638.38
715.43	1691.62
715.62	1673.19
715.81	1689.57
716.00	1679.33
716.18	1742.82
716.37	1755.11
716.56	1695.72
716.75	1705.96
716.94	1665.00
717.12	1761.25
717.31	1640.42
717.50	1650.66
717.69	1705.96
717.88	1716.20
718.06	1687.53
718.25	1701.86
718.44	1634.28
718.63	1777.64
718.82	1675.24
719.00	1681.38
719.19	1738.73
719.38	1632.23
719.57	1662.95
719.76	1628.14
719.94	1681.38
720.13	1677.29
720.32	1720.29
720.51	1665.00
720.69	1705.96
720.88	1775.59
721.07	1648.61
721.26	1779.68
721.44	1716.20
721.63	1685.48
721.82	1691.62
722.01	1626.09
722.20	1744.87
722.38	1703.91
722.57	1662.95
722.76	1628.14
722.95	1648.61
723.13	1744.87
723.32	1714.15
723.51	1761.25
723.70	1624.04
723.88	1669.09
724.07	1640.42
724.26	1740.77
724.44	1726.44
724.63	1728.49
724.82	1697.77
725.01	1708.01
725.19	1624.04
725.38	1714.15
725.57	1658.85
725.76	1767.40
725.94	1656.81
726.13	1613.80
726.32	1667.05
726.51	1630.18
726.69	1595.37
726.88	1681.38
727.07	1710.05
727.25	1695.72
727.44	1701.86
727.63	1650.66
727.82	1652.71
728.00	1708.01
728.19	1712.10
728.38	1621.99
728.56	1570.79
728.75	1753.06
728.94	1753.06
729.12	1712.10
729.31	1652.71
729.50	1636.33
729.69	1730.53
729.87	1656.81
730.06	1613.80
730.25	1634.28
730.43	1742.82
730.62	1626.09
730.81	1660.90
730.99	1667.05
731.18	1648.61
731.37	1630.18
731.55	1708.01
731.74	1687.53
731.93	1734.63
732.11	1703.91
732.30	1695.72
732.49	1689.57
732.67	1628.14
732.86	1607.66
733.05	1652.71
733.23	1730.53
733.42	1687.53
733.61	1677.29
733.79	1628.14
733.98	1685.48
734.17	1603.56
734.35	1742.82
734.54	1746.92
734.73	1777.64
734.91	1591.27
735.10	1714.15
735.29	1718.25
735.47	1636.33
735.66	1617.90
735.84	1863.65
736.03	1656.81
736.22	1683.43
736.40	1658.85
736.59	1535.98
736.78	1695.72
736.96	1683.43
737.15	1740.77
737.33	1712.10
737.52	1701.86
737.71	1679.33
737.89	1712.10
738.08	1609.70
738.27	1693.67
738.45	1662.95
738.64	1705.96
738.82	1624.04
739.01	1710.05
739.20	1720.29
739.38	1712.10
739.57	1716.20
739.75	1685.48
739.94	1742.82
740.13	1595.37
740.31	1681.38
740.50	1699.81
740.68	1634.28
740.87	1560.55
741.06	1720.29
741.24	1644.52
741.43	1705.96
741.61	1585.13
741.80	1685.48
741.99	1634.28
742.17	1708.01
742.36	1595.37
742.54	1705.96
742.73	1763.30
742.91	1630.18
743.10	1597.42
743.29	1759.21
743.47	1708.01
743.66	1556.46
743.84	1671.14
744.03	1685.48
744.21	1611.75
744.40	1695.72
744.59	1730.53
744.77	1583.08
744.96	1701.86
745.14	1673.19
745.33	1771.49
745.51	1646.57
745.70	1660.90
745.88	1765.35
746.07	1617.90
746.26	1613.80
746.44	1646.57
746.63	1615.85
746.81	1714.15
747.00	1689.57
747.18	1722.34
747.37	1570.79
747.55	1712.10
747.74	1929.19
747.92	1687.53
748.11	1675.24
748.29	1681.38
748.48	1685.48
748.66	1650.66
748.85	1740.77
749.03	1681.38
749.22	1665.00
749.41	1646.57
749.59	1699.81
749.78	1644.52
749.96	1509.35
750.15	1597.42
750.33	1669.09
750.52	1617.90
750.70	1669.09
750.89	1667.05
751.07	1667.05
751.26	1753.06
751.44	1671.14
751.63	1677.29
751.81	1585.13
752.00	1656.81
752.18	1656.81
752.37	1673.19
752.55	1601.51
752.74	1646.57
752.92	1640.42
753.10	1644.52
753.29	1699.81
753.47	1712.10
753.66	1615.85
753.84	1644.52
754.03	1574.89
754.21	1665.00
754.40	1679.33
754.58	1779.68
754.77	1796.07
754.95	1769.44
755.14	1656.81
755.32	1656.81
755.51	1624.04
755.69	1665.00
755.88	1624.04
756.06	1779.68
756.24	1714.15
756.43	1687.53
756.61	1644.52
756.80	1566.70
756.98	1757.16
757.17	1722.34
757.35	1654.76
757.54	1693.67
757.72	1675.24
757.90	1679.33
758.09	1667.05
758.27	1638.38
758.46	1626.09
758.64	1699.81
758.83	1712.10
759.01	1693.67
759.19	1761.25
759.38	1712.10
759.56	1691.62
759.75	1591.27
759.93	1722.34
760.12	1593.32
760.30	1744.87
760.48	1638.38
760.67	1765.35
760.85	1601.51
761.04	1669.09
761.22	1624.04
761.40	1658.85
761.59	1642.47
761.77	1720.29
761.96	1660.90
762.14	1712.10
762.32	1748.97
762.51	1607.66
762.69	1609.70
762.88	1673.19
763.06	1636.33
763.24	1638.38
763.43	1613.80
763.61	1609.70
763.80	1656.81
763.98	1665.00
764.16	1626.09
764.35	1621.99
764.53	1648.61
764.72	1646.57
764.90	1677.29
765.08	1658.85
765.27	1722.34
765.45	1652.71
765.63	1634.28
765.82	1712.10
766.00	1644.52
766.18	1683.43
766.37	1574.89
766.55	1632.23
766.74	1697.77
766.92	1626.09
767.10	1634.28
767.29	1740.77
767.47	1654.76
767.65	1675.24
767.84	1693.67
768.02	1720.29
768.20	1681.38
768.39	1697.77
768.57	1642.47
768.75	1613.80
768.94	1796.07
769.12	1603.56
769.30	1576.94
769.49	1744.87
769.67	1593.32
769.85	1757.16
770.04	1585.13
770.22	1691.62
770.40	1687.53
770.59	1687.53
770.77	1701.86
770.95	1728.49
771.14	1640.42
771.32	1660.90
771.50	1599.46
771.69	1624.04
771.87	1621.99
772.05	1634.28
772.24	1648.61
772.42	1748.97
772.60	1638.38
772.78	1683.43
772.97	1548.26
773.15	1662.95
773.33	1691.62
773.52	1585.13
773.70	1699.81
773.88	1652.71
774.07	1574.89
774.25	1593.32
774.43	1701.86
774.61	1574.89
774.80	1630.18
774.98	1689.57
775.16	1658.85
775.34	1650.66
775.53	1757.16
775.71	1638.38
775.89	1689.57
776.08	1671.14
776.26	1648.61
776.44	1695.72
776.62	1626.09
776.81	1626.09
776.99	1699.81
777.17	1636.33
777.35	1738.73
777.54	1695.72
777.72	1621.99
777.90	1652.71
778.08	1685.48
778.27	1720.29
778.45	1550.31
778.63	1523.69
778.81	1656.81
779.00	1685.48
779.18	1648.61
779.36	1638.38
779.54	1720.29
779.73	1695.72
779.91	1638.38
780.09	1701.86
780.27	1656.81
780.46	1658.85
780.64	1605.61
780.82	1677.29
781.00	1662.95
781.19	1568.74
781.37	1578.98
781.55	1716.20
781.73	1675.24
781.91	1607.66
782.10	1660.90
782.28	1671.14
782.46	1687.53
782.64	1648.61
782.82	1751.01
783.01	1597.42
783.19	1681.38
783.37	1714.15
783.55	1691.62
783.74	1697.77
783.92	1665.00
784.10	1722.34
784.28	1583.08
784.46	1607.66
784.64	1578.98
784.83	1732.58
785.01	1787.88
785.19	1794.02
785.37	1740.77
785.55	1630.18
785.74	1652.71
785.92	1619.94
786.10	1734.63
786.28	1714.15
786.46	1720.29
786.64	1576.94
786.83	1613.80
787.01	1730.53
787.19	1746.92
787.37	1722.34
787.55	1589.22
787.74	1646.57
787.92	1599.46
788.10	1703.91
788.28	1632.23
788.46	1679.33
788.64	1687.53
788.82	1665.00
789.01	1675.24
789.19	1675.24
789.37	1669.09
789.55	1658.85
789.73	1626.09
789.91	1656.81
790.09	1646.57
790.28	1642.47
790.46	1544.17
790.64	1685.48
790.82	1572.84
791.00	1695.72
791.18	1742.82
791.36	1755.11
791.55	1671.14
791.73	1583.08
791.91	1617.90
792.09	1712.10
792.27	1552.36
792.45	1740.77
792.63	1703.91
792.81	1724.39
793.00	1712.10
793.18	1738.73
793.36	1791.97
793.54	1720.29
793.72	1679.33
793.90	1662.95
794.08	1652.71
794.26	1789.92
794.44	1587.18
794.62	1601.51
794.81	1550.31
794.99	1716.20
795.17	1771.49
795.35	1593.32
795.53	1681.38
795.71	1703.91
795.89	1595.37
796.07	1681.38
796.25	1660.90
796.43	1738.73
796.61	1675.24
796.80	1607.66
796.98	1650.66
797.16	1732.58
797.34	1615.85
797.52	1634.28
797.70	1732.58
797.88	1705.96
798.06	1617.90
798.24	1736.68
798.42	1640.42
798.60	1708.01
798.78	1738.73
798.96	1740.77
799.14	1630.18
799.32	1705.96
799.51	1587.18
799.69	1699.81
799.87	1718.25
800.05	1683.43
800.23	1581.03
800.41	1636.33
800.59	1699.81
800.77	1650.66
800.95	1562.60
801.13	1736.68
801.31	1708.01
801.49	1810.40
801.67	1654.76
801.85	1699.81
802.03	1669.09
802.21	1720.29
802.39	1617.90
802.57	1619.94
802.75	1720.29
802.93	1732.58
803.11	1568.74
803.29	1724.39
803.47	1718.25
803.65	1648.61
803.83	1527.78
804.01	1671.14
804.19	1626.09
804.37	1650.66
804.55	1609.70
804.73	1699.81
804.91	1576.94
805.09	1716.20
805.27	1736.68
805.45	1695.72
805.63	1617.90
805.81	1675.24
805.99	1742.82
806.17	1638.38
806.35	1556.46
806.53	1630.18
806.71	1654.76
806.89	1703.91
807.07	1687.53
807.25	1658.85
807.43	1624.04
807.61	1761.25
807.79	1609.70
807.97	1632.23
808.15	1724.39
808.33	1665.00
808.51	1695.72
808.69	1601.51
808.87	1662.95
809.05	1527.78
809.23	1642.47
809.41	1576.94
809.59	1605.61
809.77	1730.53
809.95	1632.23
810.13	1761.25
810.31	1644.52
810.49	1665.00
810.67	1607.66
810.84	1673.19
811.02	1660.90
811.20	1562.60
811.38	1798.12
811.56	1583.08
811.74	1636.33
811.92	1548.26
812.10	1599.46
812.28	1669.09
812.46	1695.72
812.64	1673.19
812.82	1601.51
813.00	1609.70
813.18	1640.42
813.36	1705.96
813.53	1662.95
813.71	1691.62
813.89	1667.05
814.07	1621.99
814.25	1699.81
814.43	1685.48
814.61	1552.36
814.79	1667.05
814.97	1671.14
815.15	1693.67
815.33	1626.09
815.50	1591.27
815.68	1589.22
815.86	1615.85
816.04	1699.81
816.22	1693.67
816.40	1699.81
816.58	1609.70
816.76	1533.93
816.94	1671.14
817.11	1564.65
817.29	1708.01
817.47	1675.24
817.65	1568.74
817.83	1652.71
818.01	1574.89
818.19	1507.30
818.37	1689.57
818.54	1691.62
818.72	1708.01
818.90	1712.10
819.08	1642.47
819.26	1712.10
819.44	1736.68
819.62	1626.09
819.80	1609.70
819.97	1652.71
820.15	1626.09
820.33	1544.17
820.51	1630.18
820.69	1677.29
820.87	1685.48
821.05	1675.24
821.22	1572.84
821.40	1652.71
821.58	1757.16
821.76	1617.90
821.94	1570.79
822.12	1714.15
822.29	1701.86
822.47	1679.33
822.65	1660.90
822.83	1540.07
823.01	1648.61
823.19	1576.94
823.36	1566.70
823.54	1630.18
823.72	1660.90
823.90	1660.90
824.08	1540.07
824.25	1693.67
824.43	1712.10
824.61	1665.00
824.79	1669.09
824.97	1542.12
825.15	1574.89
825.32	1617.90
825.50	1722.34
825.68	1597.42
825.86	1693.67
826.04	1597.42
826.21	1810.40
826.39	1648.61
826.57	1675.24
826.75	1675.24
826.93	1716.20
827.10	1644.52
827.28	1662.95
827.46	1683.43
827.64	1703.91
827.81	1650.66
827.99	1628.14
828.17	1701.86
828.35	1630.18
828.53	1609.70
828.70	1691.62
828.88	1593.32
829.06	1589.22
829.24	1566.70
829.41	1665.00
829.59	1789.92
829.77	1595.37
829.95	1724.39
830.12	1603.56
830.30	1681.38
830.48	1726.44
830.66	1564.65
830.84	1654.76
831.01	1714.15
831.19	1556.46
831.37	1724.39
831.55	1679.33
831.72	1755.11
831.90	1712.10
832.08	1646.57
832.25	1677.29
832.43	1742.82
832.61	1697.77
832.79	1538.02
832.96	1703.91
833.14	1738.73
833.32	1708.01
833.50	1538.02
833.67	1605.61
833.85	1574.89
834.03	1581.03
834.20	1656.81
834.38	1734.63
834.56	1810.40
834.74	1519.59
834.91	1669.09
835.09	1771.49
835.27	1578.98
835.44	1712.10
835.62	1507.30
835.80	1589.22
835.98	1654.76
836.15	1773.54
836.33	1656.81
836.51	1572.84
836.68	1650.66
836.86	1570.79
837.04	1761.25
837.21	1746.92
837.39	1716.20
837.57	1628.14
837.75	1724.39
837.92	1634.28
838.10	1617.90
838.28	1599.46
838.45	1648.61
838.63	1650.66
838.81	1763.30
838.98	1650.66
839.16	1593.32
839.34	1585.13
839.51	1636.33
839.69	1568.74
839.87	1630.18
840.04	1593.32
840.22	1834.98
840.40	1603.56
840.57	1650.66
840.75	1640.42
840.93	1607.66
841.10	1605.61
841.28	1728.49
841.46	1658.85
841.63	1724.39
841.81	1570.79
841.98	1552.36
842.16	1775.59
842.34	1662.95
842.51	1533.93
842.69	1609.70
842.87	1560.55
843.04	1720.29
843.22	1624.04
843.40	1519.59
843.57	1578.98
843.75	1675.24
843.92	1712.10
844.10	1748.97
844.28	1693.67
844.45	1636.33
844.63	1626.09
844.81	1673.19
844.98	1773.54
845.16	1624.04
845.33	1652.71
845.51	1613.80
845.69	1691.62
845.86	1703.91
846.04	1550.31
846.21	1613.80
846.39	1548.26
846.57	1630.18
846.74	1630.18
846.92	1675.24
847.09	1568.74
847.27	1527.78
847.45	1703.91
847.62	1701.86
847.80	1626.09
847.97	1693.67
848.15	1630.18
848.32	1583.08
848.50	1632.23
848.68	1619.94
848.85	1628.14
849.03	1470.44
849.20	1617.90
849.38	1656.81
849.56	1568.74
849.73	1601.51
849.91	1619.94
850.08	1662.95
850.26	1521.64
850.43	1583.08
850.61	1722.34
850.78	1511.40
850.96	1626.09
851.14	1544.17
851.31	1716.20
851.49	1671.14
851.66	1658.85
851.84	1587.18
852.01	1662.95
852.19	1591.27
852.36	1685.48
852.54	1703.91
852.71	1621.99
852.89	1703.91
853.07	1564.65
853.24	1632.23
853.42	1699.81
853.59	1568.74
853.77	1640.42
853.94	1665.00
854.12	1816.55
854.29	1529.83
854.47	1597.42
854.64	1687.53
854.82	1703.91
854.99	1685.48
855.17	1628.14
855.34	1624.04
855.52	1662.95
855.69	1765.35
855.87	1585.13
856.04	1701.86
856.22	1718.25
856.39	1695.72
856.57	1673.19
856.74	1675.24
856.92	1740.77
857.09	1593.32
857.27	1558.50
857.44	1718.25
857.62	1673.19
857.79	1683.43
857.97	1679.33
858.14	1628.14
858.32	1675.24
858.49	1695.72
858.67	1679.33
858.84	1591.27
859.02	1679.33
859.19	1621.99
859.37	1679.33
859.54	1601.51
859.72	1601.51
859.89	1589.22
860.06	1574.89
860.24	1597.42
860.41	1722.34
860.59	1601.51
860.76	1736.68
860.94	1478.63
861.11	1732.58
861.29	1662.95
861.46	1538.02
861.64	1673.19
861.81	1746.92
861.98	1615.85
862.16	1650.66
862.33	1572.84
862.51	1558.50
862.68	1564.65
862.86	1679.33
863.03	1640.42
863.21	1687.53
863.38	1589.22
863.55	1658.85
863.73	1626.09
863.90	1646.57
864.08	1615.85
864.25	1619.94
864.43	1619.94
864.60	1691.62
864.77	1669.09
864.95	1681.38
865.12	1617.90
865.30	1683.43
865.47	1673.19
865.64	1667.05
865.82	1632.23
865.99	1759.21
866.17	1634.28
866.34	1691.62
866.51	1599.46
866.69	1667.05
866.86	1691.62
867.04	1697.77
867.21	1605.61
867.38	1607.66
867.56	1734.63
867.73	1689.57
867.91	1640.42
868.08	1581.03
868.25	1527.78
868.43	1632.23
868.60	1665.00
868.78	1515.50
868.95	1703.91
869.12	1673.19
869.30	1687.53
869.47	1675.24
869.64	1613.80
869.82	1621.99
869.99	1626.09
870.16	1710.05
870.34	1681.38
870.51	1697.77
870.69	1533.93
870.86	1677.29
871.03	1599.46
871.21	1648.61
871.38	1667.05
871.55	1593.32
871.73	1626.09
871.90	1642.47
872.07	1589.22
872.25	1548.26
872.42	1578.98
872.59	1572.84
872.77	1564.65
872.94	1654.76
873.11	1669.09
873.29	1669.09
873.46	1648.61
873.63	1644.52
873.81	1673.19
873.98	1654.76
874.15	1609.70
874.33	1568.74
874.50	1636.33
874.67	1693.67
874.85	1607.66
875.02	1617.90
875.19	1646.57
875.37	1695.72
875.54	1572.84
875.71	1654.76
875.88	1662.95
876.06	1683.43
876.23	1718.25
876.40	1646.57
876.58	1675.24
876.75	1691.62
876.92	1667.05
877.10	1662.95
877.27	1667.05
877.44	1689.57
877.61	1611.75
877.79	1675.24
877.96	1642.47
878.13	1630.18
878.31	1507.30
878.48	1560.55
878.65	1677.29
878.82	1538.02
879.00	1552.36
879.17	1705.96
879.34	1642.47
879.51	1535.98
879.69	1687.53
879.86	1531.88
880.03	1492.97
880.21	1658.85
880.38	1619.94
880.55	1640.42
880.72	1632.23
880.90	1644.52
881.07	1554.41
881.24	1609.70
881.41	1566.70
881.59	1621.99
881.76	1669.09
881.93	1683.43
882.10	1589.22
882.28	1650.66
882.45	1710.05
882.62	1621.99
882.79	1632.23
882.96	1517.54
883.14	1628.14
883.31	1724.39
883.48	1558.50
883.65	1646.57
883.83	1642.47
884.00	1691.62
884.17	1691.62
884.34	1683.43
884.51	1697.77
884.69	1673.19
884.86	1642.47
885.03	1634.28
885.20	1632.23
885.38	1673.19
885.55	1613.80
885.72	1675.24
885.89	1611.75
886.06	1671.14
886.24	1642.47
886.41	1656.81
886.58	1712.10
886.75	1660.90
886.92	1636.33
887.10	1542.12
887.27	1589.22
887.44	1689.57
887.61	1732.58
887.78	1732.58
887.95	1650.66
888.13	1632.23
888.30	1626.09
888.47	1656.81
888.64	1644.52
888.81	1734.63
888.99	1581.03
889.16	1638.38
889.33	1638.38
889.50	1595.37
889.67	1689.57
889.84	1691.62
890.01	1748.97
890.19	1650.66
890.36	1615.85
890.53	1675.24
890.70	1564.65
890.87	1708.01
891.04	1597.42
891.22	1646.57
891.39	1572.84
891.56	1640.42
891.73	1648.61
891.90	1609.70
892.07	1523.69
892.24	1705.96
892.42	1574.89
892.59	1595.37
892.76	1638.38
892.93	1599.46
893.10	1640.42
893.27	1691.62
893.44	1478.63
893.61	1611.75
893.79	1644.52
893.96	1583.08
894.13	1607.66
894.30	1548.26
894.47	1730.53
894.64	1691.62
894.81	1589.22
894.98	1644.52
895.15	1685.48
895.33	1685.48
895.50	1576.94
895.67	1603.56
895.84	1726.44
896.01	1593.32
896.18	1638.38
896.35	1728.49
896.52	1652.71
896.69	1679.33
896.86	1673.19
897.04	1716.20
897.21	1673.19
897.38	1656.81
897.55	1654.76
897.72	1626.09
897.89	1624.04
898.06	1728.49
898.23	1615.85
898.40	1650.66
898.57	1570.79
898.74	1632.23
898.91	1607.66
899.08	1581.03
899.26	1658.85
899.43	1689.57
899.60	1642.47
899.77	1740.77
899.94	1558.50
900.11	1632.23
900.28	1601.51
900.45	1624.04
900.62	1589.22
900.79	1667.05
900.96	1611.75
901.13	1595.37
901.30	1570.79
901.47	1548.26
901.64	1585.13
901.81	1626.09
901.98	1640.42
902.15	1697.77
902.32	1568.74
902.49	1581.03
902.66	1679.33
902.83	1699.81
903.01	1681.38
903.18	1611.75
903.35	1603.56
903.52	1720.29
903.69	1636.33
903.86	1609.70
904.03	1617.90
904.20	1642.47
904.37	1558.50
904.54	1509.35
904.71	1624.04
904.88	1562.60
905.05	1572.84
905.22	1687.53
905.39	1495.02
905.56	1578.98
905.73	1609.70
905.90	1640.42
906.07	1699.81
906.24	1689.57
906.41	1617.90
906.58	1648.61
906.75	1628.14
906.92	1525.74
907.09	1574.89
907.26	1642.47
907.43	1578.98
907.60	1624.04
907.77	1611.75
907.93	1656.81
908.10	1667.05
908.27	1677.29
908.44	1593.32
908.61	1566.70
908.78	1609.70
908.95	1734.63
909.12	1634.28
909.29	1591.27
909.46	1554.41
909.63	1687.53
909.80	1650.66
909.97	1703.91
910.14	1689.57
910.31	1587.18
910.48	1636.33
910.65	1658.85
910.82	1611.75
910.99	1640.42
911.16	1601.51
911.33	1574.89
911.50	1630.18
911.66	1681.38
911.83	1669.09
912.00	1609.70
912.17	1486.83
912.34	1613.80
912.51	1615.85
912.68	1595.37
912.85	1621.99
913.02	1667.05
913.19	1603.56
913.36	1660.90
913.53	1617.90
913.70	1607.66
913.86	1691.62
914.03	1648.61
914.20	1722.34
914.37	1581.03
914.54	1624.04
914.71	1685.48
914.88	1652.71
915.05	1652.71
915.22	1597.42
915.39	1636.33
915.55	1603.56
915.72	1544.17
915.89	1560.55
916.06	1638.38
916.23	1578.98
916.40	1683.43
916.57	1636.33
916.74	1632.23
916.91	1642.47
917.07	1521.64
917.24	1613.80
917.41	1638.38
917.58	1724.39
917.75	1599.46
917.92	1589.22
918.09	1617.90
918.26	1654.76
918.42	1617.90
918.59	1673.19
918.76	1546.22
918.93	1566.70
919.10	1507.30
919.27	1581.03
919.44	1777.64
919.60	1628.14
919.77	1601.51
919.94	1667.05
920.11	1562.60
920.28	1765.35
920.45	1578.98
920.61	1609.70
920.78	1642.47
920.95	1677.29
921.12	1609.70
921.29	1597.42
921.46	1591.27
921.62	1535.98
921.79	1621.99
921.96	1615.85
922.13	1595.37
922.30	1603.56
922.47	1609.70
922.63	1607.66
922.80	1638.38
922.97	1628.14
923.14	1560.55
923.31	1558.50
923.47	1628.14
923.64	1746.92
923.81	1601.51
923.98	1654.76
924.15	1662.95
924.32	1681.38
924.48	1695.72
924.65	1636.33
924.82	1517.54
924.99	1615.85
925.15	1552.36
925.32	1742.82
925.49	1585.13
925.66	1650.66
925.83	1644.52
925.99	1628.14
926.16	1699.81
926.33	1681.38
926.50	1593.32
926.67	1499.11
926.83	1599.46
927.00	1632.23
927.17	1689.57
927.34	1603.56
927.50	1675.24
927.67	1796.07
927.84	1726.44
928.01	1507.30
928.17	1662.95
928.34	1603.56
928.51	1642.47
928.68	1636.33
928.84	1624.04
929.01	1589.22
929.18	1548.26
929.35	1654.76
929.51	1619.94
929.68	1644.52
929.85	1587.18
930.02	1646.57
930.18	1597.42
930.35	1701.86
930.52	1640.42
930.69	1603.56
930.85	1621.99
931.02	1673.19
931.19	1583.08
931.36	1591.27
931.52	1583.08
931.69	1679.33
931.86	1671.14
932.02	1628.14
932.19	1624.04
932.36	1652.71
932.53	1624.04
932.69	1585.13
932.86	1689.57
933.03	1638.38
933.19	1572.84
933.36	1601.51
933.53	1687.53
933.70	1624.04
933.86	1611.75
934.03	1654.76
934.20	1607.66
934.36	1611.75
934.53	1572.84
934.70	1593.32
934.86	1634.28
935.03	1648.61
935.20	1689.57
935.36	1679.33
935.53	1642.47
935.70	1599.46
935.86	1632.23
936.03	1546.22
936.20	1517.54
936.36	1548.26
936.53	1665.00
936.70	1669.09
936.86	1714.15
937.03	1660.90
937.20	1566.70
937.36	1652.71
937.53	1570.79
937.70	1583.08
937.86	1581.03
938.03	1685.48
938.20	1732.58
938.36	1681.38
938.53	1617.90
938.70	1515.50
938.86	1638.38
939.03	1648.61
939.20	1601.51
939.36	1593.32
939.53	1656.81
939.70	1853.41
939.86	1720.29
940.03	1642.47
940.19	1564.65
940.36	1585.13
940.53	1671.14
940.69	1646.57
940.86	1642.47
941.03	1652.71
941.19	1552.36
941.36	1607.66
941.52	1638.38
941.69	1658.85
941.86	1617.90
942.02	1671.14
942.19	1572.84
942.35	1710.05
942.52	1619.94
942.69	1675.24
942.85	1560.55
943.02	1656.81
943.18	1732.58
943.35	1617.90
943.52	1601.51
943.68	1542.12
943.85	1648.61
944.01	1548.26
944.18	1599.46
944.35	1677.29
944.51	1617.90
944.68	1552.36
944.84	1624.04
945.01	1609.70
945.17	1568.74
945.34	1683.43
945.51	1626.09
945.67	1583.08
945.84	1644.52
946.00	1564.65
946.17	1646.57
946.33	1597.42
946.50	1689.57
946.67	1665.00
946.83	1634.28
947.00	1662.95
947.16	1603.56
947.33	1638.38
947.49	1609.70
947.66	1609.70
947.82	1671.14
947.99	1609.70
948.16	1611.75
948.32	1669.09
948.49	1626.09
948.65	1656.81
948.82	1601.51
948.98	1681.38
949.15	1607.66
949.31	1701.86
949.48	1658.85
949.64	1611.75
949.81	1601.51
949.97	1652.71
950.14	1673.19
950.30	1474.54
950.47	1589.22
950.63	1597.42
950.80	1632.23
950.96	1529.83
951.13	1638.38
951.30	1570.79
951.46	1607.66
951.63	1705.96
951.79	1617.90
951.96	1730.53
952.12	1648.61
952.29	1699.81
952.45	1574.89
952.62	1681.38
952.78	1679.33
952.94	1646.57
953.11	1636.33
953.27	1476.59
953.44	1699.81
953.60	1583.08
953.77	1646.57
953.93	1599.46
954.10	1568.74
954.26	1640.42
954.43	1603.56
954.59	1718.25
954.76	1738.73
954.92	1699.81
955.09	1689.57
955.25	1599.46
955.42	1581.03
955.58	1652.71
955.75	1568.74
955.91	1535.98
956.07	1542.12
956.24	1665.00
956.40	1654.76
956.57	1648.61
956.73	1566.70
956.90	1626.09
957.06	1574.89
957.23	1611.75
957.39	1560.55
957.56	1609.70
957.72	1525.74
957.88	1613.80
958.05	1613.80
958.21	1613.80
958.38	1626.09
958.54	1609.70
958.71	1691.62
958.87	1538.02
959.03	1546.22
959.20	1621.99
959.36	1529.83
959.53	1597.42
959.69	1558.50
959.85	1648.61
960.02	1568.74
960.18	1624.04
960.35	1591.27
960.51	1640.42
960.68	1611.75
960.84	1630.18
961.00	1523.69
961.17	1562.60
961.33	1595.37
961.50	1667.05
961.66	1615.85
961.82	1597.42
961.99	1658.85
962.15	1624.04
962.31	1558.50
962.48	1634.28
962.64	1593.32
962.81	1636.33
962.97	1630.18
963.13	1609.70
963.30	1595.37
963.46	1550.31
963.62	1609.70
963.79	1619.94
963.95	1607.66
964.12	1628.14
964.28	1722.34
964.44	1593.32
964.61	1630.18
964.77	1652.71
964.93	1791.97
965.10	1595.37
965.26	1556.46
965.42	1646.57
965.59	1609.70
965.75	1589.22
965.92	1601.51
966.08	1632.23
966.24	1683.43
966.41	1568.74
966.57	1601.51
966.73	1710.05
966.90	1656.81
967.06	1632.23
967.22	1503.21
967.39	1572.84
967.55	1591.27
967.71	1642.47
967.88	1603.56
968.04	1574.89
968.20	1552.36
968.37	1630.18
968.53	1515.50
968.69	1675.24
968.85	1705.96
969.02	1613.80
969.18	1691.62
969.34	1619.94
969.51	1658.85
969.67	1658.85
969.83	1531.88
970.00	1667.05
970.16	1599.46
970.32	1648.61
970.48	1691.62
970.65	1574.89
970.81	1619.94
970.97	1611.75
971.14	1482.73
971.30	1748.97
971.46	1523.69
971.63	1617.90
971.79	1712.10
971.95	1662.95
972.11	1603.56
972.28	1574.89
972.44	1617.90
972.60	1603.56
972.76	1607.66
972.93	1609.70
973.09	1665.00
973.25	1638.38
973.42	1626.09
973.58	1628.14
973.74	1648.61
973.90	1703.91
974.07	1597.42
974.23	1628.14
974.39	1722.34
974.55	1609.70
974.72	1671.14
974.88	1527.78
975.04	1652.71
975.20	1599.46
975.37	1626.09
975.53	1591.27
975.69	1589.22
975.85	1570.79
976.01	1615.85
976.18	1583.08
976.34	1667.05
976.50	1654.76
976.66	1753.06
976.83	1644.52
976.99	1636.33
977.15	1611.75
977.31	1564.65
977.47	1644.52
977.64	1626.09
977.80	1613.80
977.96	1687.53
978.12	1650.66
978.29	1669.09
978.45	1548.26
978.61	1531.88
978.77	1648.61
978.93	1544.17
979.10	1669.09
979.26	1617.90
979.42	1597.42
979.58	1574.89
979.74	1591.27
979.91	1593.32
980.07	1605.61
980.23	1607.66
980.39	1585.13
980.55	1613.80
980.71	1540.07
980.88	1560.55
981.04	1632.23
981.20	1636.33
981.36	1656.81
981.52	1552.36
981.68	1548.26
981.85	1658.85
982.01	1617.90
982.17	1550.31
982.33	1695.72
982.49	1691.62
982.65	1605.61
982.82	1689.57
982.98	1695.72
983.14	1611.75
983.30	1634.28
983.46	1669.09
983.62	1550.31
983.79	1548.26
983.95	1568.74
984.11	1513.45
984.27	1650.66
984.43	1609.70
984.59	1609.70
984.75	1675.24
984.91	1724.39
985.08	1679.33
985.24	1521.64
985.40	1550.31
985.56	1621.99
985.72	1626.09
985.88	1611.75
986.04	1581.03
986.20	1517.54
986.37	1589.22
986.53	1548.26
986.69	1662.95
986.85	1517.54
987.01	1611.75
987.17	1673.19
987.33	1589.22
987.49	1689.57
987.65	1613.80
987.82	1609.70
987.98	1531.88
988.14	1619.94
988.30	1587.18
988.46	1597.42
988.62	1589.22
988.78	1574.89
988.94	1576.94
989.10	1636.33
989.26	1574.89
989.42	1697.77
989.59	1511.40
989.75	1593.32
989.91	1675.24
990.07	1550.31
990.23	1560.55
990.39	1621.99
990.55	1665.00
990.71	1646.57
990.87	1642.47
991.03	1646.57
991.19	1519.59
991.35	1638.38
991.51	1570.79
991.67	1683.43
991.83	1617.90
992.00	1619.94
992.16	1660.90
992.32	1603.56
992.48	1570.79
992.64	1509.35
992.80	1673.19
992.96	1521.64
993.12	1656.81
993.28	1665.00
993.44	1587.18
993.60	1691.62
993.76	1630.18
993.92	1656.81
994.08	1615.85
994.24	1640.42
994.40	1578.98
994.56	1638.38
994.72	1601.51
994.88	1566.70
995.04	1531.88
995.20	1603.56
995.36	1560.55
995.52	1673.19
995.68	1642.47
995.84	1480.68
996.00	1751.01
996.16	1609.70
996.32	1562.60
996.48	1611.75
996.64	1662.95
996.80	1574.89
996.96	1617.90
997.12	1509.35
997.28	1538.02
997.44	1585.13
997.60	1566.70
997.76	1621.99
997.92	1691.62
998.08	1665.00
998.24	1597.42
998.40	1607.66
998.56	1593.32
998.72	1540.07
998.88	1527.78
999.04	1576.94
999.20	1687.53
999.36	1591.27
999.52	1679.33
999.68	1607.66
999.84	1642.47
1000.00	1646.57
1000.16	1658.85
1000.32	1564.65
1000.48	1714.15
1000.64	1488.87
1000.80	1599.46
1000.95	1495.02
1001.11	1751.01
1001.27	1566.70
1001.43	1609.70
1001.59	1568.74
1001.75	1599.46
1001.91	1621.99
1002.07	1568.74
1002.23	1587.18
1002.39	1548.26
1002.55	1613.80
1002.71	1542.12
1002.87	1576.94
1003.03	1548.26
1003.19	1570.79
1003.34	1613.80
1003.50	1521.64
1003.66	1658.85
1003.82	1621.99
1003.98	1564.65
1004.14	1593.32
1004.30	1533.93
1004.46	1601.51
1004.62	1572.84
1004.78	1546.22
1004.94	1667.05
1005.09	1662.95
1005.25	1632.23
1005.41	1603.56
1005.57	1603.56
1005.73	1511.40
1005.89	1593.32
1006.05	1626.09
1006.21	1628.14
1006.37	1576.94
1006.52	1587.18
1006.68	1521.64
1006.84	1761.25
1007.00	1613.80
1007.16	1644.52
1007.32	1515.50
1007.48	1566.70
1007.64	1642.47
1007.79	1574.89
1007.95	1509.35
1008.11	1642.47
1008.27	1513.45
1008.43	1617.90
1008.59	1585.13
1008.75	1681.38
1008.91	1640.42
1009.06	1542.12
1009.22	1615.85
1009.38	1644.52
1009.54	1576.94
1009.70	1593.32
1009.86	1583.08
1010.01	1638.38
1010.17	1593.32
1010.33	1662.95
1010.49	1597.42
1010.65	1689.57
1010.81	1560.55
1010.96	1642.47
1011.12	1581.03
1011.28	1546.22
1011.44	1640.42
1011.60	1603.56
1011.76	1597.42
1011.91	1675.24
1012.07	1515.50
1012.23	1492.97
1012.39	1572.84
1012.55	1621.99
1012.71	1603.56
1012.86	1550.31
1013.02	1646.57
1013.18	1542.12
1013.34	1570.79
1013.50	1654.76
1013.65	1628.14
1013.81	1566.70
1013.97	1601.51
1014.13	1650.66
1014.29	1595.37
1014.44	1683.43
1014.60	1544.17
1014.76	1636.33
1014.92	1601.51
1015.07	1599.46
1015.23	1607.66
1015.39	1609.70
1015.55	1595.37
1015.71	1589.22
1015.86	1574.89
1016.02	1556.46
1016.18	1462.25
1016.34	1599.46
1016.49	1607.66
1016.65	1652.71
1016.81	1630.18
1016.97	1624.04
1017.12	1525.74
1017.28	1501.16
1017.44	1576.94
1017.60	1615.85
1017.75	1634.28
1017.91	1646.57
1018.07	1546.22
1018.23	1552.36
1018.38	1554.41
1018.54	1562.60
1018.70	1587.18
1018.86	1628.14
1019.01	1558.50
1019.17	1560.55
1019.33	1726.44
1019.49	1576.94
1019.64	1544.17
1019.80	1591.27
1019.96	1626.09
1020.12	1656.81
1020.27	1562.60
1020.43	1632.23
1020.59	1609.70
1020.74	1675.24
1020.90	1679.33
1021.06	1484.78
1021.22	1621.99
1021.37	1710.05
1021.53	1581.03
1021.69	1632.23
1021.84	1605.61
1022.00	1562.60
1022.16	1619.94
1022.31	1587.18
1022.47	1669.09
1022.63	1601.51
1022.79	1480.68
1022.94	1585.13
1023.10	1718.25
1023.26	1605.61
1023.41	1538.02
1023.57	1630.18
1023.73	1644.52
1023.88	1550.31
1024.04	1550.31
1024.20	1599.46
1024.35	1624.04
1024.51	1585.13
1024.67	1601.51
1024.82	1705.96
1024.98	1499.11
1025.14	1669.09
1025.29	1542.12
1025.45	1673.19
1025.61	1544.17
1025.76	1646.57
1025.92	1597.42
1026.08	1656.81
1026.23	1652.71
1026.39	1675.24
1026.55	1656.81
1026.70	1544.17
1026.86	1621.99
1027.02	1605.61
1027.17	1609.70
1027.33	1656.81
1027.48	1615.85
1027.64	1578.98
1027.80	1581.03
1027.95	1669.09
1028.11	1548.26
1028.27	1669.09
1028.42	1652.71
1028.58	1665.00
1028.73	1587.18
1028.89	1535.98
1029.05	1617.90
1029.20	1634.28
>>>>>End Processed Spectral Data<<<<<
