SpectraSuite Data File
++++++++++++++++++++++++++++++++++++
Date: Fri Jun 02 14:47:53 CEST 2017
User: INFO_000
Dark Spectrum Present: No
Reference Spectrum Present: No
Number of Sampled Component Spectra: 1
Spectrometers: USB4H00879
Integration Time (usec): 80000 (USB4H00879)
Spectra Averaged: 1 (USB4H00879)
Boxcar Smoothing: 0 (USB4H00879)
Correct for Electrical Dark: No (USB4H00879)
Strobe/Lamp Enabled: No (USB4H00879)
Correct for Detector Non-linearity: No (USB4H00879)
Correct for Stray Light: No (USB4H00879)
Number of Pixels in Processed Spectrum: 3648
>>>>>Begin Processed Spectral Data<<<<<
345.13	1269.74
345.34	1269.74
345.56	1269.74
345.78	1234.93
345.99	1282.03
346.21	1675.24
346.42	1724.39
346.64	1652.71
346.86	1812.45
347.07	1626.09
347.29	1765.35
347.50	1730.53
347.72	1667.05
347.94	1783.78
348.15	1572.84
348.37	1640.42
348.59	1634.28
348.80	1646.57
349.02	1761.25
349.23	1744.87
349.45	1703.91
349.67	1791.97
349.88	1665.00
350.10	1877.99
350.31	1669.09
350.53	1662.95
350.75	1800.16
350.96	1677.29
351.18	1798.12
351.39	1667.05
351.61	1636.33
351.82	1781.73
352.04	1742.82
352.26	1691.62
352.47	1787.88
352.69	1785.83
352.90	1644.52
353.12	1765.35
353.34	1732.58
353.55	1806.31
353.77	1648.61
353.98	1665.00
354.20	1665.00
354.41	1736.68
354.63	1728.49
354.85	1794.02
355.06	1847.27
355.28	1689.57
355.49	1687.53
355.71	1708.01
355.92	1744.87
356.14	1751.01
356.35	1669.09
356.57	1603.56
356.79	1730.53
357.00	1581.03
357.22	1714.15
357.43	1599.46
357.65	1755.11
357.86	1705.96
358.08	1730.53
358.29	1710.05
358.51	1757.16
358.72	1837.03
358.94	1794.02
359.16	1757.16
359.37	1730.53
359.59	1732.58
359.80	1658.85
360.02	1677.29
360.23	1710.05
360.45	1765.35
360.66	1712.10
360.88	1558.50
361.09	1673.19
361.31	1759.21
361.52	1662.95
361.74	1806.31
361.95	1839.08
362.17	1638.38
362.38	1730.53
362.60	1726.44
362.81	1728.49
363.03	1634.28
363.24	1673.19
363.46	1783.78
363.67	1685.48
363.89	1759.21
364.10	1730.53
364.32	1671.14
364.53	1748.97
364.75	1660.90
364.96	1722.34
365.18	1701.86
365.39	1695.72
365.61	1679.33
365.82	1781.73
366.04	1677.29
366.25	1617.90
366.47	1746.92
366.68	1751.01
366.90	1636.33
367.11	1771.49
367.33	1710.05
367.54	1701.86
367.76	1644.52
367.97	1730.53
368.19	1693.67
368.40	1701.86
368.62	1599.46
368.83	1636.33
369.05	1712.10
369.26	1654.76
369.48	1689.57
369.69	1683.43
369.91	1734.63
370.12	1703.91
370.33	1703.91
370.55	1644.52
370.76	1667.05
370.98	1763.30
371.19	1779.68
371.41	1595.37
371.62	1720.29
371.84	1617.90
372.05	1775.59
372.27	1691.62
372.48	1671.14
372.69	1697.77
372.91	1812.45
373.12	1789.92
373.34	1677.29
373.55	1673.19
373.77	1720.29
373.98	1636.33
374.20	1751.01
374.41	1837.03
374.62	1695.72
374.84	1691.62
375.05	1716.20
375.27	1705.96
375.48	1665.00
375.70	1656.81
375.91	1728.49
376.12	1759.21
376.34	1658.85
376.55	1710.05
376.77	1769.44
376.98	1626.09
377.19	1597.42
377.41	1650.66
377.62	1722.34
377.84	1695.72
378.05	1882.08
378.27	1650.66
378.48	1783.78
378.69	1789.92
378.91	1730.53
379.12	1693.67
379.34	1697.77
379.55	1767.40
379.76	1781.73
379.98	1714.15
380.19	1722.34
380.41	1732.58
380.62	1751.01
380.83	1660.90
381.05	1634.28
381.26	1808.36
381.47	1656.81
381.69	1757.16
381.90	1708.01
382.12	1716.20
382.33	1640.42
382.54	1736.68
382.76	1746.92
382.97	1703.91
383.19	1669.09
383.40	1728.49
383.61	1716.20
383.83	1634.28
384.04	1720.29
384.25	1716.20
384.47	1759.21
384.68	1644.52
384.89	1632.23
385.11	1615.85
385.32	1583.08
385.54	1624.04
385.75	1662.95
385.96	1679.33
386.18	1693.67
386.39	1722.34
386.60	1691.62
386.82	1667.05
387.03	1681.38
387.24	1730.53
387.46	1671.14
387.67	1648.61
387.88	1697.77
388.10	1646.57
388.31	1648.61
388.52	1759.21
388.74	1726.44
388.95	1587.18
389.16	1701.86
389.38	1624.04
389.59	1742.82
389.80	1781.73
390.02	1681.38
390.23	1781.73
390.44	1734.63
390.66	1626.09
390.87	1648.61
391.08	1671.14
391.30	1775.59
391.51	1732.58
391.72	1775.59
391.94	1734.63
392.15	1693.67
392.36	1607.66
392.58	1626.09
392.79	1654.76
393.00	1775.59
393.22	1716.20
393.43	1673.19
393.64	1802.21
393.85	1675.24
394.07	1626.09
394.28	1632.23
394.49	1728.49
394.71	1708.01
394.92	1781.73
395.13	1568.74
395.35	1656.81
395.56	1665.00
395.77	1671.14
395.98	1757.16
396.20	1716.20
396.41	1716.20
396.62	1705.96
396.84	1611.75
397.05	1621.99
397.26	1679.33
397.47	1732.58
397.69	1642.47
397.90	1841.12
398.11	1720.29
398.32	1705.96
398.54	1724.39
398.75	1648.61
398.96	1695.72
399.18	1794.02
399.39	1710.05
399.60	1624.04
399.81	1720.29
400.03	1544.17
400.24	1896.42
400.45	1751.01
400.66	1718.25
400.88	1585.13
401.09	1830.88
401.30	1630.18
401.51	1761.25
401.73	1742.82
401.94	1826.79
402.15	1681.38
402.36	1716.20
402.58	1767.40
402.79	1687.53
403.00	1724.39
403.21	1691.62
403.43	1722.34
403.64	1763.30
403.85	1695.72
404.06	1748.97
404.27	1540.07
404.49	1730.53
404.70	1720.29
404.91	1775.59
405.12	1671.14
405.34	1777.64
405.55	1861.60
405.76	1662.95
405.97	1654.76
406.19	1716.20
406.40	1665.00
406.61	1738.73
406.82	1728.49
407.03	1687.53
407.25	1568.74
407.46	1738.73
407.67	1765.35
407.88	1859.56
408.09	1712.10
408.31	1675.24
408.52	1718.25
408.73	1624.04
408.94	1683.43
409.15	1708.01
409.37	1773.54
409.58	1726.44
409.79	1718.25
410.00	1849.32
410.21	1701.86
410.43	1740.77
410.64	1634.28
410.85	1771.49
411.06	1701.86
411.27	1814.50
411.48	1806.31
411.70	1724.39
411.91	1646.57
412.12	1773.54
412.33	1812.45
412.54	1619.94
412.76	1857.51
412.97	1783.78
413.18	1671.14
413.39	1716.20
413.60	1759.21
413.81	1679.33
414.03	1673.19
414.24	1689.57
414.45	1814.50
414.66	1556.46
414.87	1671.14
415.08	1701.86
415.30	1648.61
415.51	1734.63
415.72	1748.97
415.93	1665.00
416.14	1753.06
416.35	1644.52
416.56	1726.44
416.78	1748.97
416.99	1712.10
417.20	1759.21
417.41	1720.29
417.62	1671.14
417.83	1755.11
418.04	1728.49
418.26	1781.73
418.47	1634.28
418.68	1708.01
418.89	1787.88
419.10	1902.56
419.31	1746.92
419.52	1812.45
419.73	1789.92
419.95	1705.96
420.16	1689.57
420.37	1656.81
420.58	1765.35
420.79	1628.14
421.00	1695.72
421.21	1677.29
421.42	1607.66
421.63	1695.72
421.85	1714.15
422.06	1640.42
422.27	1665.00
422.48	1675.24
422.69	1712.10
422.90	1628.14
423.11	1615.85
423.32	1804.26
423.53	1765.35
423.75	1671.14
423.96	1732.58
424.17	1794.02
424.38	1757.16
424.59	1701.86
424.80	1699.81
425.01	1640.42
425.22	1568.74
425.43	1757.16
425.64	1810.40
425.85	1800.16
426.06	1773.54
426.28	1716.20
426.49	1583.08
426.70	1626.09
426.91	1673.19
427.12	1753.06
427.33	1677.29
427.54	1644.52
427.75	1730.53
427.96	1765.35
428.17	1769.44
428.38	1708.01
428.59	1720.29
428.80	1714.15
429.01	1681.38
429.23	1705.96
429.44	1683.43
429.65	1708.01
429.86	1718.25
430.07	1734.63
430.28	1650.66
430.49	1742.82
430.70	1791.97
430.91	1773.54
431.12	1658.85
431.33	1722.34
431.54	1806.31
431.75	1677.29
431.96	1609.70
432.17	1648.61
432.38	1730.53
432.59	1785.83
432.80	1779.68
433.01	1634.28
433.22	1736.68
433.43	1757.16
433.64	1812.45
433.85	1769.44
434.06	1740.77
434.27	1712.10
434.49	1708.01
434.70	1697.77
434.91	1728.49
435.12	1765.35
435.33	1660.90
435.54	1753.06
435.75	1611.75
435.96	1632.23
436.17	1642.47
436.38	1796.07
436.59	1718.25
436.80	1662.95
437.01	1744.87
437.22	1777.64
437.43	1689.57
437.64	1621.99
437.85	1722.34
438.06	1755.11
438.27	1681.38
438.48	1640.42
438.69	1773.54
438.90	1693.67
439.11	1626.09
439.32	1783.78
439.53	1585.13
439.74	1632.23
439.95	1708.01
440.16	1689.57
440.37	1771.49
440.57	1548.26
440.78	1683.43
440.99	1679.33
441.20	1644.52
441.41	1564.65
441.62	1615.85
441.83	1578.98
442.04	1542.12
442.25	1673.19
442.46	1597.42
442.67	1642.47
442.88	1796.07
443.09	1685.48
443.30	1693.67
443.51	1626.09
443.72	1720.29
443.93	1619.94
444.14	1761.25
444.35	1619.94
444.56	1656.81
444.77	1642.47
444.98	1681.38
445.19	1732.58
445.40	1658.85
445.61	1636.33
445.81	1619.94
446.02	1781.73
446.23	1710.05
446.44	1591.27
446.65	1671.14
446.86	1695.72
447.07	1783.78
447.28	1576.94
447.49	1769.44
447.70	1705.96
447.91	1751.01
448.12	1593.32
448.33	1718.25
448.54	1662.95
448.74	1724.39
448.95	1722.34
449.16	1779.68
449.37	1667.05
449.58	1724.39
449.79	1783.78
450.00	1654.76
450.21	1699.81
450.42	1697.77
450.63	1718.25
450.84	1621.99
451.05	1621.99
451.25	1689.57
451.46	1595.37
451.67	1791.97
451.88	1689.57
452.09	1740.77
452.30	1638.38
452.51	1632.23
452.72	1773.54
452.93	1855.46
453.13	1675.24
453.34	1662.95
453.55	1720.29
453.76	1648.61
453.97	1751.01
454.18	1593.32
454.39	1779.68
454.60	1626.09
454.81	1718.25
455.01	1679.33
455.22	1646.57
455.43	1644.52
455.64	1730.53
455.85	1699.81
456.06	1748.97
456.27	1716.20
456.48	1740.77
456.68	1742.82
456.89	1738.73
457.10	1662.95
457.31	1685.48
457.52	1763.30
457.73	1683.43
457.94	1708.01
458.14	1572.84
458.35	1740.77
458.56	1697.77
458.77	1701.86
458.98	1687.53
459.19	1705.96
459.39	1718.25
459.60	1669.09
459.81	1701.86
460.02	1689.57
460.23	1644.52
460.44	1658.85
460.65	1662.95
460.85	1705.96
461.06	1681.38
461.27	1648.61
461.48	1626.09
461.69	1697.77
461.89	1572.84
462.10	1712.10
462.31	1624.04
462.52	1578.98
462.73	1697.77
462.94	1744.87
463.14	1703.91
463.35	1685.48
463.56	1769.44
463.77	1667.05
463.98	1667.05
464.18	1669.09
464.39	1716.20
464.60	1804.26
464.81	1560.55
465.02	1697.77
465.23	1708.01
465.43	1689.57
465.64	1587.18
465.85	1634.28
466.06	1753.06
466.27	1695.72
466.47	1679.33
466.68	1802.21
466.89	1611.75
467.10	1624.04
467.30	1615.85
467.51	1730.53
467.72	1763.30
467.93	1642.47
468.14	1642.47
468.34	1777.64
468.55	1648.61
468.76	1757.16
468.97	1669.09
469.17	1734.63
469.38	1859.56
469.59	1660.90
469.80	1761.25
470.01	1667.05
470.21	1728.49
470.42	1638.38
470.63	1740.77
470.84	1740.77
471.04	1732.58
471.25	1832.93
471.46	1710.05
471.67	1722.34
471.87	1728.49
472.08	1732.58
472.29	1701.86
472.50	1683.43
472.70	1601.51
472.91	1650.66
473.12	1621.99
473.33	1708.01
473.53	1734.63
473.74	1585.13
473.95	1599.46
474.16	1617.90
474.36	1722.34
474.57	1695.72
474.78	1654.76
474.99	1798.12
475.19	1671.14
475.40	1708.01
475.61	1734.63
475.81	1736.68
476.02	1650.66
476.23	1718.25
476.44	1699.81
476.64	1593.32
476.85	1675.24
477.06	1652.71
477.27	1652.71
477.47	1753.06
477.68	1773.54
477.89	1667.05
478.09	1665.00
478.30	1626.09
478.51	1654.76
478.71	1667.05
478.92	1755.11
479.13	1658.85
479.34	1679.33
479.54	1714.15
479.75	1710.05
479.96	1603.56
480.16	1710.05
480.37	1617.90
480.58	1703.91
480.78	1763.30
480.99	1646.57
481.20	1687.53
481.41	1687.53
481.61	1724.39
481.82	1765.35
482.03	1662.95
482.23	1613.80
482.44	1740.77
482.65	1832.93
482.85	1695.72
483.06	1703.91
483.27	1687.53
483.47	1701.86
483.68	1722.34
483.89	1689.57
484.09	1699.81
484.30	1626.09
484.51	1771.49
484.71	1632.23
484.92	1697.77
485.13	1757.16
485.33	1662.95
485.54	1685.48
485.75	1714.15
485.95	1740.77
486.16	1630.18
486.37	1734.63
486.57	1607.66
486.78	1757.16
486.98	1712.10
487.19	1687.53
487.40	1740.77
487.60	1646.57
487.81	1632.23
488.02	1673.19
488.22	1669.09
488.43	1886.18
488.64	1695.72
488.84	1673.19
489.05	1716.20
489.25	1642.47
489.46	1679.33
489.67	1642.47
489.87	1798.12
490.08	1718.25
490.29	1632.23
490.49	1837.03
490.70	1701.86
490.90	1693.67
491.11	1728.49
491.32	1716.20
491.52	1695.72
491.73	1703.91
491.94	1656.81
492.14	1609.70
492.35	1611.75
492.55	1802.21
492.76	1642.47
492.97	1667.05
493.17	1683.43
493.38	1695.72
493.58	1822.69
493.79	1701.86
494.00	1691.62
494.20	1644.52
494.41	1781.73
494.61	1734.63
494.82	1689.57
495.02	1556.46
495.23	1714.15
495.44	1681.38
495.64	1710.05
495.85	1701.86
496.05	1722.34
496.26	1638.38
496.47	1652.71
496.67	1667.05
496.88	1712.10
497.08	1689.57
497.29	1681.38
497.49	1642.47
497.70	1671.14
497.91	1642.47
498.11	1767.40
498.32	1695.72
498.52	1775.59
498.73	1667.05
498.93	1722.34
499.14	1675.24
499.34	1781.73
499.55	1716.20
499.76	1603.56
499.96	1730.53
500.17	1753.06
500.37	1650.66
500.58	1724.39
500.78	1640.42
500.99	1642.47
501.19	1636.33
501.40	1769.44
501.60	1546.22
501.81	1634.28
502.02	1708.01
502.22	1640.42
502.43	1654.76
502.63	1828.84
502.84	1726.44
503.04	1699.81
503.25	1648.61
503.45	1748.97
503.66	1628.14
503.86	1738.73
504.07	1728.49
504.27	1613.80
504.48	1679.33
504.68	1703.91
504.89	1781.73
505.09	1617.90
505.30	1677.29
505.50	1708.01
505.71	1722.34
505.91	1744.87
506.12	1697.77
506.32	1718.25
506.53	1638.38
506.73	1703.91
506.94	1626.09
507.14	1650.66
507.35	1689.57
507.55	1744.87
507.76	1630.18
507.96	1611.75
508.17	1779.68
508.37	1576.94
508.58	1734.63
508.78	1679.33
508.99	1781.73
509.19	1720.29
509.40	1708.01
509.60	1736.68
509.81	1740.77
510.01	1732.58
510.22	1630.18
510.42	1703.91
510.63	1693.67
510.83	1689.57
511.04	1691.62
511.24	1693.67
511.44	1679.33
511.65	1695.72
511.85	1699.81
512.06	1751.01
512.26	1675.24
512.47	1736.68
512.67	1732.58
512.88	1697.77
513.08	1550.31
513.29	1730.53
513.49	1687.53
513.69	1665.00
513.90	1634.28
514.10	1734.63
514.31	1667.05
514.51	1677.29
514.72	1703.91
514.92	1730.53
515.13	1636.33
515.33	1615.85
515.53	1603.56
515.74	1765.35
515.94	1732.58
516.15	1705.96
516.35	1613.80
516.56	1595.37
516.76	1619.94
516.96	1683.43
517.17	1785.83
517.37	1738.73
517.58	1634.28
517.78	1671.14
517.99	1748.97
518.19	1796.07
518.39	1652.71
518.60	1724.39
518.80	1660.90
519.01	1751.01
519.21	1673.19
519.41	1724.39
519.62	1611.75
519.82	1693.67
520.03	1628.14
520.23	1691.62
520.43	1591.27
520.64	1798.12
520.84	1812.45
521.05	1591.27
521.25	1748.97
521.45	1716.20
521.66	1642.47
521.86	1732.58
522.07	1730.53
522.27	1636.33
522.47	1634.28
522.68	1708.01
522.88	1728.49
523.08	1828.84
523.29	1611.75
523.49	1634.28
523.70	1708.01
523.90	1642.47
524.10	1667.05
524.31	1603.56
524.51	1531.88
524.71	1718.25
524.92	1705.96
525.12	1634.28
525.33	1714.15
525.53	1716.20
525.73	1722.34
525.94	1587.18
526.14	1683.43
526.34	1650.66
526.55	1724.39
526.75	1660.90
526.95	1859.56
527.16	1687.53
527.36	1673.19
527.56	1681.38
527.77	1697.77
527.97	1751.01
528.17	1730.53
528.38	1687.53
528.58	1769.44
528.78	1794.02
528.99	1703.91
529.19	1687.53
529.39	1714.15
529.60	1619.94
529.80	1626.09
530.00	1568.74
530.21	1783.78
530.41	1798.12
530.61	1691.62
530.82	1660.90
531.02	1697.77
531.22	1742.82
531.43	1708.01
531.63	1681.38
531.83	1636.33
532.04	1714.15
532.24	1687.53
532.44	1683.43
532.64	1794.02
532.85	1656.81
533.05	1646.57
533.25	1640.42
533.46	1710.05
533.66	1681.38
533.86	1673.19
534.07	1751.01
534.27	1576.94
534.47	1826.79
534.67	1656.81
534.88	1658.85
535.08	1759.21
535.28	1697.77
535.49	1601.51
535.69	1742.82
535.89	1693.67
536.09	1804.26
536.30	1724.39
536.50	1718.25
536.70	1732.58
536.91	1597.42
537.11	1771.49
537.31	1703.91
537.51	1650.66
537.72	1705.96
537.92	1708.01
538.12	1726.44
538.32	1751.01
538.53	1732.58
538.73	1638.38
538.93	1708.01
539.13	1724.39
539.34	1703.91
539.54	1564.65
539.74	1742.82
539.94	1650.66
540.15	1724.39
540.35	1669.09
540.55	1746.92
540.75	1605.61
540.96	1677.29
541.16	1648.61
541.36	1656.81
541.56	1742.82
541.77	1728.49
541.97	1730.53
542.17	1660.90
542.37	1779.68
542.58	1720.29
542.78	1789.92
542.98	1718.25
543.18	1734.63
543.38	1697.77
543.59	1734.63
543.79	1687.53
543.99	1628.14
544.19	1732.58
544.40	1746.92
544.60	1691.62
544.80	1708.01
545.00	1601.51
545.20	1755.11
545.41	1605.61
545.61	1632.23
545.81	1658.85
546.01	1689.57
546.21	1650.66
546.42	1724.39
546.62	1755.11
546.82	1632.23
547.02	1669.09
547.22	1708.01
547.43	1765.35
547.63	1738.73
547.83	1679.33
548.03	1574.89
548.23	1724.39
548.44	1675.24
548.64	1705.96
548.84	1652.71
549.04	1638.38
549.24	1779.68
549.45	1787.88
549.65	1634.28
549.85	1757.16
550.05	1687.53
550.25	1595.37
550.45	1855.46
550.66	1687.53
550.86	1601.51
551.06	1705.96
551.26	1662.95
551.46	1736.68
551.66	1683.43
551.87	1800.16
552.07	1689.57
552.27	1673.19
552.47	1785.83
552.67	1683.43
552.87	1634.28
553.07	1650.66
553.28	1699.81
553.48	1697.77
553.68	1646.57
553.88	1736.68
554.08	1691.62
554.28	1634.28
554.48	1675.24
554.69	1734.63
554.89	1714.15
555.09	1650.66
555.29	1669.09
555.49	1738.73
555.69	1679.33
555.89	1730.53
556.10	1613.80
556.30	1648.61
556.50	1665.00
556.70	1734.63
556.90	1794.02
557.10	1716.20
557.30	1714.15
557.50	1619.94
557.70	1634.28
557.91	1607.66
558.11	1660.90
558.31	1755.11
558.51	1697.77
558.71	1722.34
558.91	1722.34
559.11	1695.72
559.31	1562.60
559.51	1576.94
559.72	1740.77
559.92	1574.89
560.12	1656.81
560.32	1804.26
560.52	1777.64
560.72	1611.75
560.92	1779.68
561.12	1687.53
561.32	1634.28
561.52	1697.77
561.72	1847.27
561.93	1708.01
562.13	1587.18
562.33	1712.10
562.53	1716.20
562.73	1736.68
562.93	1656.81
563.13	1773.54
563.33	1765.35
563.53	1740.77
563.73	1824.74
563.93	1791.97
564.13	1753.06
564.33	1798.12
564.53	1705.96
564.74	1648.61
564.94	1632.23
565.14	1783.78
565.34	1738.73
565.54	1722.34
565.74	1726.44
565.94	1665.00
566.14	1679.33
566.34	1761.25
566.54	1714.15
566.74	1662.95
566.94	1658.85
567.14	1724.39
567.34	1699.81
567.54	1712.10
567.74	1693.67
567.94	1693.67
568.14	1603.56
568.34	1859.56
568.54	1667.05
568.74	1744.87
568.94	1748.97
569.14	1796.07
569.34	1654.76
569.54	1626.09
569.75	1646.57
569.95	1632.23
570.15	1724.39
570.35	1748.97
570.55	1615.85
570.75	1740.77
570.95	1632.23
571.15	1720.29
571.35	1583.08
571.55	1705.96
571.75	1689.57
571.95	1732.58
572.15	1662.95
572.35	1626.09
572.55	1685.48
572.75	1658.85
572.95	1591.27
573.15	1640.42
573.35	1765.35
573.55	1667.05
573.75	1712.10
573.95	1847.27
574.15	1705.96
574.35	1646.57
574.55	1675.24
574.75	1697.77
574.95	1628.14
575.15	1679.33
575.34	1695.72
575.54	1708.01
575.74	1718.25
575.94	1712.10
576.14	1595.37
576.34	1769.44
576.54	1705.96
576.74	1757.16
576.94	1628.14
577.14	1650.66
577.34	1781.73
577.54	1638.38
577.74	1708.01
577.94	1720.29
578.14	1634.28
578.34	1705.96
578.54	1566.70
578.74	1646.57
578.94	1699.81
579.14	1730.53
579.34	1572.84
579.54	1695.72
579.74	1636.33
579.94	1624.04
580.13	1773.54
580.33	1685.48
580.53	1544.17
580.73	1605.61
580.93	1705.96
581.13	1626.09
581.33	1697.77
581.53	1728.49
581.73	1720.29
581.93	1628.14
582.13	1734.63
582.33	1712.10
582.53	1619.94
582.73	1648.61
582.92	1630.18
583.12	1779.68
583.32	1648.61
583.52	1744.87
583.72	1808.36
583.92	1683.43
584.12	1718.25
584.32	1779.68
584.52	1564.65
584.72	1624.04
584.92	1636.33
585.11	1763.30
585.31	1789.92
585.51	1660.90
585.71	1732.58
585.91	1765.35
586.11	1650.66
586.31	1738.73
586.51	1697.77
586.71	1718.25
586.91	1667.05
587.10	1808.36
587.30	1775.59
587.50	1667.05
587.70	1718.25
587.90	1662.95
588.10	1675.24
588.30	1669.09
588.50	1685.48
588.69	1603.56
588.89	1697.77
589.09	1705.96
589.29	1646.57
589.49	1714.15
589.69	1634.28
589.89	1675.24
590.08	1695.72
590.28	1634.28
590.48	1673.19
590.68	1675.24
590.88	1673.19
591.08	1775.59
591.28	1656.81
591.47	1720.29
591.67	1595.37
591.87	1691.62
592.07	1832.93
592.27	1581.03
592.47	1650.66
592.67	1705.96
592.86	1609.70
593.06	1669.09
593.26	1751.01
593.46	1699.81
593.66	1589.22
593.86	1808.36
594.05	1662.95
594.25	1724.39
594.45	1712.10
594.65	1820.64
594.85	1753.06
595.05	1677.29
595.24	1794.02
595.44	1699.81
595.64	1716.20
595.84	1751.01
596.04	1640.42
596.23	1720.29
596.43	1632.23
596.63	1689.57
596.83	1617.90
597.03	1857.51
597.22	1685.48
597.42	1697.77
597.62	1636.33
597.82	1679.33
598.02	1712.10
598.21	1624.04
598.41	1691.62
598.61	1646.57
598.81	1662.95
599.01	1654.76
599.20	1789.92
599.40	1624.04
599.60	1714.15
599.80	1716.20
600.00	1849.32
600.19	1718.25
600.39	1660.90
600.59	1748.97
600.79	1693.67
600.98	1716.20
601.18	1763.30
601.38	1740.77
601.58	1679.33
601.78	1726.44
601.97	1701.86
602.17	1660.90
602.37	1697.77
602.57	1843.17
602.76	1730.53
602.96	1744.87
603.16	1675.24
603.36	1667.05
603.55	1753.06
603.75	1576.94
603.95	1716.20
604.15	1642.47
604.34	1617.90
604.54	1648.61
604.74	1677.29
604.94	1742.82
605.13	1671.14
605.33	1699.81
605.53	1724.39
605.73	1761.25
605.92	1656.81
606.12	1683.43
606.32	1726.44
606.52	1724.39
606.71	1804.26
606.91	1626.09
607.11	1570.79
607.30	1658.85
607.50	1746.92
607.70	1779.68
607.90	1759.21
608.09	1679.33
608.29	1708.01
608.49	1808.36
608.68	1642.47
608.88	1660.90
609.08	1667.05
609.28	1677.29
609.47	1705.96
609.67	1716.20
609.87	1621.99
610.06	1757.16
610.26	1703.91
610.46	1773.54
610.66	1587.18
610.85	1601.51
611.05	1748.97
611.25	1634.28
611.44	1599.46
611.64	1703.91
611.84	1689.57
612.03	1642.47
612.23	1681.38
612.43	1732.58
612.62	1732.58
612.82	1699.81
613.02	1755.11
613.21	1732.58
613.41	1761.25
613.61	1712.10
613.80	1701.86
614.00	1675.24
614.20	1732.58
614.39	1773.54
614.59	1734.63
614.79	1617.90
614.98	1638.38
615.18	1738.73
615.38	1687.53
615.57	1646.57
615.77	1753.06
615.97	1697.77
616.16	1687.53
616.36	1708.01
616.56	1763.30
616.75	1689.57
616.95	1652.71
617.15	1720.29
617.34	1599.46
617.54	1746.92
617.74	1841.12
617.93	1800.16
618.13	1671.14
618.32	1681.38
618.52	1740.77
618.72	1656.81
618.91	1728.49
619.11	1794.02
619.31	1679.33
619.50	1683.43
619.70	1621.99
619.90	1632.23
620.09	1621.99
620.29	1667.05
620.48	1767.40
620.68	1728.49
620.88	1712.10
621.07	1753.06
621.27	1726.44
621.46	1701.86
621.66	1708.01
621.86	1708.01
622.05	1617.90
622.25	1839.08
622.44	1703.91
622.64	1753.06
622.84	1667.05
623.03	1607.66
623.23	1699.81
623.42	1761.25
623.62	1673.19
623.82	1773.54
624.01	1708.01
624.21	1566.70
624.40	1783.78
624.60	1576.94
624.80	1716.20
624.99	1699.81
625.19	1796.07
625.38	1654.76
625.58	1667.05
625.77	1681.38
625.97	1759.21
626.17	1605.61
626.36	1591.27
626.56	1787.88
626.75	1605.61
626.95	1699.81
627.14	1748.97
627.34	1681.38
627.54	1765.35
627.73	1763.30
627.93	1808.36
628.12	1665.00
628.32	1781.73
628.51	1646.57
628.71	1818.60
628.90	1675.24
629.10	1619.94
629.30	1656.81
629.49	1734.63
629.69	1654.76
629.88	1665.00
630.08	1769.44
630.27	1861.60
630.47	1665.00
630.66	1699.81
630.86	1748.97
631.05	1681.38
631.25	1648.61
631.44	1730.53
631.64	1609.70
631.84	1697.77
632.03	1769.44
632.23	1642.47
632.42	1640.42
632.62	1648.61
632.81	1691.62
633.01	1740.77
633.20	1798.12
633.40	1783.78
633.59	1746.92
633.79	1703.91
633.98	1761.25
634.18	1724.39
634.37	1798.12
634.57	1644.52
634.76	1689.57
634.96	1767.40
635.15	1818.60
635.35	1662.95
635.54	1796.07
635.74	1695.72
635.93	1671.14
636.13	1648.61
636.32	1697.77
636.52	1740.77
636.71	1650.66
636.91	1791.97
637.10	1755.11
637.30	1695.72
637.49	1693.67
637.69	1734.63
637.88	1730.53
638.08	1599.46
638.27	1736.68
638.46	1679.33
638.66	1699.81
638.85	1642.47
639.05	1683.43
639.24	1744.87
639.44	1703.91
639.63	1779.68
639.83	1751.01
640.02	1718.25
640.22	1634.28
640.41	1632.23
640.61	1767.40
640.80	1759.21
640.99	1675.24
641.19	1765.35
641.38	1777.64
641.58	1757.16
641.77	1679.33
641.97	1621.99
642.16	1644.52
642.36	1710.05
642.55	1703.91
642.74	1679.33
642.94	1708.01
643.13	1691.62
643.33	1703.91
643.52	1648.61
643.72	1761.25
643.91	1640.42
644.10	1789.92
644.30	1701.86
644.49	1712.10
644.69	1732.58
644.88	1730.53
645.08	1777.64
645.27	1685.48
645.46	1599.46
645.66	1656.81
645.85	1658.85
646.05	1712.10
646.24	1611.75
646.43	1701.86
646.63	1751.01
646.82	1710.05
647.02	1716.20
647.21	1808.36
647.40	1652.71
647.60	1669.09
647.79	1673.19
647.99	1626.09
648.18	1675.24
648.37	1744.87
648.57	1722.34
648.76	1662.95
648.96	1708.01
649.15	1732.58
649.34	1736.68
649.54	1744.87
649.73	1628.14
649.92	1705.96
650.12	1804.26
650.31	1650.66
650.51	1918.95
650.70	1632.23
650.89	1634.28
651.09	1794.02
651.28	1748.97
651.47	1658.85
651.67	1785.83
651.86	1837.03
652.06	1621.99
652.25	1765.35
652.44	1574.89
652.64	1738.73
652.83	1738.73
653.02	1724.39
653.22	1644.52
653.41	1650.66
653.60	1640.42
653.80	1626.09
653.99	1716.20
654.18	1638.38
654.38	1660.90
654.57	1732.58
654.76	1677.29
654.96	1746.92
655.15	1615.85
655.34	1675.24
655.54	1679.33
655.73	1632.23
655.92	1753.06
656.12	1621.99
656.31	1746.92
656.50	1828.84
656.70	1632.23
656.89	1626.09
657.08	1585.13
657.28	1673.19
657.47	1699.81
657.66	1689.57
657.86	1755.11
658.05	1744.87
658.24	1748.97
658.43	1689.57
658.63	1615.85
658.82	1755.11
659.01	1705.96
659.21	1832.93
659.40	1703.91
659.59	1697.77
659.79	1662.95
659.98	1818.60
660.17	1701.86
660.36	1699.81
660.56	1767.40
660.75	1746.92
660.94	1675.24
661.14	1691.62
661.33	1703.91
661.52	1689.57
661.71	1763.30
661.91	1636.33
662.10	1636.33
662.29	1570.79
662.49	1697.77
662.68	1634.28
662.87	1726.44
663.06	1791.97
663.26	1736.68
663.45	1816.55
663.64	1660.90
663.83	1689.57
664.03	1742.82
664.22	1802.21
664.41	1826.79
664.60	1837.03
664.80	1615.85
664.99	1755.11
665.18	1839.08
665.37	1742.82
665.57	1726.44
665.76	1720.29
665.95	1658.85
666.14	1701.86
666.34	1658.85
666.53	1630.18
666.72	1538.02
666.91	1771.49
667.11	1689.57
667.30	1818.60
667.49	1701.86
667.68	1656.81
667.87	1675.24
668.07	1716.20
668.26	1568.74
668.45	1644.52
668.64	1681.38
668.84	1773.54
669.03	1673.19
669.22	1759.21
669.41	1630.18
669.60	1646.57
669.80	1718.25
669.99	1673.19
670.18	1679.33
670.37	1722.34
670.57	1712.10
670.76	1773.54
670.95	1804.26
671.14	1716.20
671.33	1742.82
671.53	1732.58
671.72	1828.84
671.91	1748.97
672.10	1660.90
672.29	1675.24
672.48	1605.61
672.68	1658.85
672.87	1603.56
673.06	1677.29
673.25	1712.10
673.44	1630.18
673.64	1642.47
673.83	1847.27
674.02	1652.71
674.21	1771.49
674.40	1656.81
674.59	1738.73
674.79	1650.66
674.98	1716.20
675.17	1751.01
675.36	1667.05
675.55	1595.37
675.74	1634.28
675.94	1847.27
676.13	1695.72
676.32	1650.66
676.51	1675.24
676.70	1564.65
676.89	1673.19
677.08	1660.90
677.28	1751.01
677.47	1701.86
677.66	1710.05
677.85	1591.27
678.04	1687.53
678.23	1746.92
678.42	1681.38
678.62	1634.28
678.81	1675.24
679.00	1607.66
679.19	1787.88
679.38	1677.29
679.57	1630.18
679.76	1630.18
679.96	1716.20
680.15	1765.35
680.34	1634.28
680.53	1724.39
680.72	1753.06
680.91	1685.48
681.10	1708.01
681.29	1705.96
681.48	1751.01
681.68	1751.01
681.87	1804.26
682.06	1771.49
682.25	1650.66
682.44	1652.71
682.63	1789.92
682.82	1544.17
683.01	1701.86
683.20	1671.14
683.39	1816.55
683.59	1691.62
683.78	1675.24
683.97	1654.76
684.16	1617.90
684.35	1617.90
684.54	1683.43
684.73	1736.68
684.92	1611.75
685.11	1779.68
685.30	1730.53
685.49	1730.53
685.69	1765.35
685.88	1630.18
686.07	1671.14
686.26	1675.24
686.45	1654.76
686.64	1779.68
686.83	1667.05
687.02	1724.39
687.21	1742.82
687.40	1693.67
687.59	1781.73
687.78	1708.01
687.97	1837.03
688.16	1705.96
688.35	1648.61
688.54	1705.96
688.74	1576.94
688.93	1662.95
689.12	1730.53
689.31	1882.08
689.50	1673.19
689.69	1632.23
689.88	1728.49
690.07	1638.38
690.26	1687.53
690.45	1710.05
690.64	1630.18
690.83	1677.29
691.02	1693.67
691.21	1705.96
691.40	1667.05
691.59	1638.38
691.78	1703.91
691.97	1691.62
692.16	1683.43
692.35	1720.29
692.54	1802.21
692.73	1703.91
692.92	1798.12
693.11	1726.44
693.30	1748.97
693.49	1617.90
693.68	1740.77
693.87	1634.28
694.06	1603.56
694.25	1558.50
694.44	1720.29
694.63	1624.04
694.82	1656.81
695.01	1671.14
695.20	1683.43
695.39	1646.57
695.58	1736.68
695.77	1650.66
695.96	1744.87
696.15	1667.05
696.34	1658.85
696.53	1665.00
696.72	1720.29
696.91	1683.43
697.10	1665.00
697.29	1738.73
697.48	1855.46
697.67	1712.10
697.86	1662.95
698.05	1605.61
698.24	1689.57
698.43	1621.99
698.62	1724.39
698.81	1626.09
699.00	1681.38
699.19	1798.12
699.38	1753.06
699.57	1722.34
699.76	1746.92
699.95	1658.85
700.14	1738.73
700.32	1675.24
700.51	1630.18
700.70	1679.33
700.89	1761.25
701.08	1763.30
701.27	1589.22
701.46	1886.18
701.65	1642.47
701.84	1650.66
702.03	1607.66
702.22	1781.73
702.41	1744.87
702.60	1794.02
702.79	1691.62
702.98	1581.03
703.17	1703.91
703.35	1650.66
703.54	1728.49
703.73	1720.29
703.92	1691.62
704.11	1642.47
704.30	1687.53
704.49	1732.58
704.68	1665.00
704.87	1638.38
705.06	1716.20
705.25	1619.94
705.43	1636.33
705.62	1656.81
705.81	1689.57
706.00	1798.12
706.19	1679.33
706.38	1585.13
706.57	1837.03
706.76	1720.29
706.95	1734.63
707.14	1660.90
707.32	1673.19
707.51	1615.85
707.70	1630.18
707.89	1626.09
708.08	1728.49
708.27	1753.06
708.46	1734.63
708.65	1587.18
708.84	1798.12
709.02	1656.81
709.21	1593.32
709.40	1667.05
709.59	1720.29
709.78	1699.81
709.97	1658.85
710.16	1703.91
710.34	1714.15
710.53	1691.62
710.72	1695.72
710.91	1662.95
711.10	1583.08
711.29	1648.61
711.48	1740.77
711.66	1644.52
711.85	1722.34
712.04	1712.10
712.23	1632.23
712.42	1781.73
712.61	1720.29
712.80	1638.38
712.98	1703.91
713.17	1667.05
713.36	1712.10
713.55	1796.07
713.74	1699.81
713.93	1740.77
714.11	1656.81
714.30	1538.02
714.49	1744.87
714.68	1681.38
714.87	1630.18
715.06	1775.59
715.24	1716.20
715.43	1728.49
715.62	1669.09
715.81	1718.25
716.00	1718.25
716.18	1691.62
716.37	1732.58
716.56	1693.67
716.75	1755.11
716.94	1699.81
717.12	1650.66
717.31	1654.76
717.50	1679.33
717.69	1624.04
717.88	1716.20
718.06	1638.38
718.25	1695.72
718.44	1624.04
718.63	1769.44
718.82	1574.89
719.00	1652.71
719.19	1789.92
719.38	1673.19
719.57	1685.48
719.76	1650.66
719.94	1665.00
720.13	1662.95
720.32	1789.92
720.51	1714.15
720.69	1734.63
720.88	1800.16
721.07	1638.38
721.26	1783.78
721.44	1724.39
721.63	1767.40
721.82	1648.61
722.01	1722.34
722.20	1716.20
722.38	1712.10
722.57	1560.55
722.76	1757.16
722.95	1576.94
723.13	1677.29
723.32	1673.19
723.51	1701.86
723.70	1767.40
723.88	1759.21
724.07	1665.00
724.26	1701.86
724.44	1718.25
724.63	1824.74
724.82	1671.14
725.01	1650.66
725.19	1658.85
725.38	1697.77
725.57	1583.08
725.76	1771.49
725.94	1624.04
726.13	1677.29
726.32	1691.62
726.51	1673.19
726.69	1593.32
726.88	1679.33
727.07	1679.33
727.25	1667.05
727.44	1624.04
727.63	1630.18
727.82	1689.57
728.00	1720.29
728.19	1681.38
728.38	1689.57
728.56	1527.78
728.75	1775.59
728.94	1738.73
729.12	1759.21
729.31	1673.19
729.50	1550.31
729.69	1642.47
729.87	1611.75
730.06	1683.43
730.25	1714.15
730.43	1748.97
730.62	1677.29
730.81	1648.61
730.99	1648.61
731.18	1705.96
731.37	1683.43
731.55	1744.87
731.74	1689.57
731.93	1644.52
732.11	1642.47
732.30	1689.57
732.49	1732.58
732.67	1677.29
732.86	1691.62
733.05	1568.74
733.23	1712.10
733.42	1615.85
733.61	1662.95
733.79	1638.38
733.98	1755.11
734.17	1603.56
734.35	1695.72
734.54	1720.29
734.73	1781.73
734.91	1578.98
735.10	1685.48
735.29	1705.96
735.47	1576.94
735.66	1632.23
735.84	1746.92
736.03	1597.42
736.22	1712.10
736.40	1648.61
736.59	1607.66
736.78	1595.37
736.96	1632.23
737.15	1712.10
737.33	1751.01
737.52	1632.23
737.71	1714.15
737.89	1638.38
738.08	1632.23
738.27	1753.06
738.45	1681.38
738.64	1699.81
738.82	1656.81
739.01	1624.04
739.20	1658.85
739.38	1814.50
739.57	1677.29
739.75	1699.81
739.94	1791.97
740.13	1589.22
740.31	1771.49
740.50	1716.20
740.68	1667.05
740.87	1605.61
741.06	1687.53
741.24	1718.25
741.43	1708.01
741.61	1654.76
741.80	1675.24
741.99	1652.71
742.17	1802.21
742.36	1617.90
742.54	1687.53
742.73	1728.49
742.91	1652.71
743.10	1642.47
743.29	1681.38
743.47	1656.81
743.66	1607.66
743.84	1650.66
744.03	1667.05
744.21	1599.46
744.40	1667.05
744.59	1708.01
744.77	1708.01
744.96	1755.11
745.14	1626.09
745.33	1615.85
745.51	1683.43
745.70	1699.81
745.88	1673.19
746.07	1619.94
746.26	1665.00
746.44	1642.47
746.63	1585.13
746.81	1777.64
747.00	1734.63
747.18	1697.77
747.37	1652.71
747.55	1736.68
747.74	1923.04
747.92	1757.16
748.11	1744.87
748.29	1695.72
748.48	1726.44
748.66	1605.61
748.85	1703.91
749.03	1581.03
749.22	1589.22
749.41	1654.76
749.59	1777.64
749.78	1654.76
749.96	1585.13
750.15	1609.70
750.33	1675.24
750.52	1624.04
750.70	1701.86
750.89	1660.90
751.07	1636.33
751.26	1755.11
751.44	1626.09
751.63	1697.77
751.81	1642.47
752.00	1613.80
752.18	1638.38
752.37	1681.38
752.55	1628.14
752.74	1619.94
752.92	1634.28
753.10	1675.24
753.29	1710.05
753.47	1691.62
753.66	1621.99
753.84	1617.90
754.03	1605.61
754.21	1703.91
754.40	1697.77
754.58	1751.01
754.77	1691.62
754.95	1746.92
755.14	1736.68
755.32	1638.38
755.51	1599.46
755.69	1667.05
755.88	1597.42
756.06	1755.11
756.24	1634.28
756.43	1673.19
756.61	1650.66
756.80	1556.46
756.98	1712.10
757.17	1689.57
757.35	1679.33
757.54	1660.90
757.72	1746.92
757.90	1740.77
758.09	1718.25
758.27	1624.04
758.46	1583.08
758.64	1697.77
758.83	1617.90
759.01	1736.68
759.19	1724.39
759.38	1617.90
759.56	1693.67
759.75	1615.85
759.93	1757.16
760.12	1658.85
760.30	1609.70
760.48	1669.09
760.67	1712.10
760.85	1662.95
761.04	1615.85
761.22	1624.04
761.40	1630.18
761.59	1613.80
761.77	1662.95
761.96	1640.42
762.14	1675.24
762.32	1748.97
762.51	1624.04
762.69	1691.62
762.88	1720.29
763.06	1593.32
763.24	1642.47
763.43	1660.90
763.61	1634.28
763.80	1710.05
763.98	1671.14
764.16	1578.98
764.35	1634.28
764.53	1613.80
764.72	1632.23
764.90	1687.53
765.08	1736.68
765.27	1687.53
765.45	1654.76
765.63	1556.46
765.82	1675.24
766.00	1634.28
766.18	1712.10
766.37	1695.72
766.55	1642.47
766.74	1642.47
766.92	1626.09
767.10	1673.19
767.29	1642.47
767.47	1646.57
767.65	1687.53
767.84	1673.19
768.02	1736.68
768.20	1673.19
768.39	1681.38
768.57	1687.53
768.75	1665.00
768.94	1701.86
769.12	1697.77
769.30	1691.62
769.49	1705.96
769.67	1693.67
769.85	1796.07
770.04	1624.04
770.22	1595.37
770.40	1650.66
770.59	1671.14
770.77	1740.77
770.95	1736.68
771.14	1669.09
771.32	1593.32
771.50	1675.24
771.69	1638.38
771.87	1607.66
772.05	1605.61
772.24	1665.00
772.42	1656.81
772.60	1701.86
772.78	1695.72
772.97	1521.64
773.15	1732.58
773.33	1779.68
773.52	1630.18
773.70	1634.28
773.88	1581.03
774.07	1646.57
774.25	1609.70
774.43	1621.99
774.61	1679.33
774.80	1648.61
774.98	1730.53
775.16	1599.46
775.34	1708.01
775.53	1722.34
775.71	1705.96
775.89	1685.48
776.08	1658.85
776.26	1615.85
776.44	1724.39
776.62	1597.42
776.81	1613.80
776.99	1728.49
777.17	1710.05
777.35	1697.77
777.54	1691.62
777.72	1675.24
777.90	1642.47
778.08	1662.95
778.27	1673.19
778.45	1576.94
778.63	1550.31
778.81	1630.18
779.00	1650.66
779.18	1705.96
779.36	1777.64
779.54	1640.42
779.73	1687.53
779.91	1628.14
780.09	1695.72
780.27	1642.47
780.46	1662.95
780.64	1591.27
780.82	1601.51
781.00	1626.09
781.19	1660.90
781.37	1705.96
781.55	1712.10
781.73	1619.94
781.91	1583.08
782.10	1689.57
782.28	1642.47
782.46	1665.00
782.64	1697.77
782.82	1708.01
783.01	1669.09
783.19	1720.29
783.37	1689.57
783.55	1644.52
783.74	1720.29
783.92	1624.04
784.10	1669.09
784.28	1712.10
784.46	1683.43
784.64	1601.51
784.83	1683.43
785.01	1730.53
785.19	1775.59
785.37	1777.64
785.55	1638.38
785.74	1636.33
785.92	1640.42
786.10	1650.66
786.28	1728.49
786.46	1736.68
786.64	1535.98
786.83	1570.79
787.01	1626.09
787.19	1726.44
787.37	1763.30
787.55	1634.28
787.74	1685.48
787.92	1714.15
788.10	1703.91
788.28	1689.57
788.46	1660.90
788.64	1701.86
788.82	1724.39
789.01	1675.24
789.19	1703.91
789.37	1695.72
789.55	1595.37
789.73	1673.19
789.91	1667.05
790.09	1658.85
790.28	1642.47
790.46	1591.27
790.64	1656.81
790.82	1634.28
791.00	1568.74
791.18	1667.05
791.36	1656.81
791.55	1701.86
791.73	1617.90
791.91	1576.94
792.09	1597.42
792.27	1574.89
792.45	1699.81
792.63	1689.57
792.81	1665.00
793.00	1691.62
793.18	1765.35
793.36	1726.44
793.54	1642.47
793.72	1671.14
793.90	1665.00
794.08	1611.75
794.26	1720.29
794.44	1626.09
794.62	1570.79
794.81	1609.70
794.99	1621.99
795.17	1738.73
795.35	1587.18
795.53	1687.53
795.71	1710.05
795.89	1621.99
796.07	1624.04
796.25	1621.99
796.43	1669.09
796.61	1675.24
796.80	1662.95
796.98	1701.86
797.16	1728.49
797.34	1652.71
797.52	1603.56
797.70	1722.34
797.88	1734.63
798.06	1603.56
798.24	1732.58
798.42	1660.90
798.60	1658.85
798.78	1675.24
798.96	1691.62
799.14	1638.38
799.32	1665.00
799.51	1603.56
799.69	1683.43
799.87	1765.35
800.05	1738.73
800.23	1587.18
800.41	1695.72
800.59	1656.81
800.77	1648.61
800.95	1617.90
801.13	1658.85
801.31	1662.95
801.49	1771.49
801.67	1642.47
801.85	1568.74
802.03	1673.19
802.21	1644.52
802.39	1509.35
802.57	1658.85
802.75	1660.90
802.93	1716.20
803.11	1601.51
803.29	1593.32
803.47	1683.43
803.65	1636.33
803.83	1621.99
804.01	1712.10
804.19	1599.46
804.37	1665.00
804.55	1662.95
804.73	1658.85
804.91	1634.28
805.09	1742.82
805.27	1673.19
805.45	1583.08
805.63	1650.66
805.81	1644.52
805.99	1753.06
806.17	1652.71
806.35	1581.03
806.53	1630.18
806.71	1697.77
806.89	1632.23
807.07	1738.73
807.25	1744.87
807.43	1671.14
807.61	1679.33
807.79	1718.25
807.97	1718.25
808.15	1611.75
808.33	1628.14
808.51	1765.35
808.69	1654.76
808.87	1654.76
809.05	1636.33
809.23	1605.61
809.41	1599.46
809.59	1572.84
809.77	1771.49
809.95	1658.85
810.13	1689.57
810.31	1642.47
810.49	1708.01
810.67	1636.33
810.84	1617.90
811.02	1757.16
811.20	1515.50
811.38	1791.97
811.56	1640.42
811.74	1656.81
811.92	1601.51
812.10	1710.05
812.28	1740.77
812.46	1687.53
812.64	1605.61
812.82	1556.46
813.00	1701.86
813.18	1650.66
813.36	1708.01
813.53	1634.28
813.71	1728.49
813.89	1599.46
814.07	1607.66
814.25	1705.96
814.43	1656.81
814.61	1628.14
814.79	1638.38
814.97	1632.23
815.15	1650.66
815.33	1595.37
815.50	1654.76
815.68	1597.42
815.86	1683.43
816.04	1693.67
816.22	1669.09
816.40	1615.85
816.58	1679.33
816.76	1589.22
816.94	1656.81
817.11	1632.23
817.29	1685.48
817.47	1626.09
817.65	1638.38
817.83	1675.24
818.01	1564.65
818.19	1576.94
818.37	1558.50
818.54	1673.19
818.72	1699.81
818.90	1679.33
819.08	1642.47
819.26	1671.14
819.44	1738.73
819.62	1689.57
819.80	1490.92
819.97	1785.83
820.15	1632.23
820.33	1591.27
820.51	1546.22
820.69	1701.86
820.87	1691.62
821.05	1730.53
821.22	1611.75
821.40	1634.28
821.58	1716.20
821.76	1636.33
821.94	1464.30
822.12	1658.85
822.29	1671.14
822.47	1650.66
822.65	1634.28
822.83	1654.76
823.01	1617.90
823.19	1609.70
823.36	1640.42
823.54	1578.98
823.72	1687.53
823.90	1675.24
824.08	1607.66
824.25	1673.19
824.43	1665.00
824.61	1568.74
824.79	1681.38
824.97	1587.18
825.15	1705.96
825.32	1628.14
825.50	1626.09
825.68	1609.70
825.86	1683.43
826.04	1591.27
826.21	1712.10
826.39	1665.00
826.57	1619.94
826.75	1679.33
826.93	1665.00
827.10	1720.29
827.28	1701.86
827.46	1748.97
827.64	1751.01
827.81	1636.33
827.99	1626.09
828.17	1658.85
828.35	1593.32
828.53	1626.09
828.70	1665.00
828.88	1634.28
829.06	1566.70
829.24	1658.85
829.41	1695.72
829.59	1757.16
829.77	1568.74
829.95	1671.14
830.12	1626.09
830.30	1671.14
830.48	1669.09
830.66	1658.85
830.84	1609.70
831.01	1621.99
831.19	1667.05
831.37	1652.71
831.55	1566.70
831.72	1839.08
831.90	1656.81
832.08	1720.29
832.25	1691.62
832.43	1744.87
832.61	1726.44
832.79	1585.13
832.96	1634.28
833.14	1730.53
833.32	1703.91
833.50	1609.70
833.67	1619.94
833.85	1613.80
834.03	1630.18
834.20	1738.73
834.38	1847.27
834.56	1712.10
834.74	1648.61
834.91	1607.66
835.09	1722.34
835.27	1615.85
835.44	1646.57
835.62	1634.28
835.80	1585.13
835.98	1617.90
836.15	1753.06
836.33	1587.18
836.51	1564.65
836.68	1574.89
836.86	1613.80
837.04	1734.63
837.21	1712.10
837.39	1683.43
837.57	1656.81
837.75	1597.42
837.92	1640.42
838.10	1624.04
838.28	1595.37
838.45	1658.85
838.63	1607.66
838.81	1761.25
838.98	1644.52
839.16	1638.38
839.34	1574.89
839.51	1621.99
839.69	1591.27
839.87	1611.75
840.04	1728.49
840.22	1937.38
840.40	1576.94
840.57	1626.09
840.75	1626.09
840.93	1593.32
841.10	1675.24
841.28	1695.72
841.46	1632.23
841.63	1701.86
841.81	1601.51
841.98	1587.18
842.16	1736.68
842.34	1609.70
842.51	1478.63
842.69	1576.94
842.87	1628.14
843.04	1595.37
843.22	1636.33
843.40	1601.51
843.57	1613.80
843.75	1642.47
843.92	1720.29
844.10	1734.63
844.28	1687.53
844.45	1585.13
844.63	1679.33
844.81	1585.13
844.98	1751.01
845.16	1658.85
845.33	1677.29
845.51	1617.90
845.69	1656.81
845.86	1724.39
846.04	1644.52
846.21	1630.18
846.39	1617.90
846.57	1578.98
846.74	1509.35
846.92	1724.39
847.09	1548.26
847.27	1617.90
847.45	1646.57
847.62	1644.52
847.80	1656.81
847.97	1558.50
848.15	1562.60
848.32	1681.38
848.50	1718.25
848.68	1630.18
848.85	1662.95
849.03	1466.35
849.20	1644.52
849.38	1630.18
849.56	1656.81
849.73	1583.08
849.91	1697.77
850.08	1673.19
850.26	1542.12
850.43	1605.61
850.61	1683.43
850.78	1454.06
850.96	1716.20
851.14	1609.70
851.31	1751.01
851.49	1617.90
851.66	1732.58
851.84	1523.69
852.01	1683.43
852.19	1607.66
852.36	1716.20
852.54	1679.33
852.71	1673.19
852.89	1673.19
853.07	1572.84
853.24	1609.70
853.42	1585.13
853.59	1648.61
853.77	1599.46
853.94	1665.00
854.12	1722.34
854.29	1548.26
854.47	1665.00
854.64	1720.29
854.82	1716.20
854.99	1654.76
855.17	1611.75
855.34	1544.17
855.52	1576.94
855.69	1800.16
855.87	1581.03
856.04	1621.99
856.22	1632.23
856.39	1607.66
856.57	1708.01
856.74	1648.61
856.92	1720.29
857.09	1615.85
857.27	1624.04
857.44	1578.98
857.62	1695.72
857.79	1626.09
857.97	1648.61
858.14	1615.85
858.32	1658.85
858.49	1634.28
858.67	1679.33
858.84	1570.79
859.02	1695.72
859.19	1691.62
859.37	1578.98
859.54	1632.23
859.72	1595.37
859.89	1689.57
860.06	1554.41
860.24	1621.99
860.41	1667.05
860.59	1595.37
860.76	1662.95
860.94	1568.74
861.11	1726.44
861.29	1691.62
861.46	1638.38
861.64	1665.00
861.81	1708.01
861.98	1603.56
862.16	1648.61
862.33	1613.80
862.51	1677.29
862.68	1687.53
862.86	1673.19
863.03	1570.79
863.21	1615.85
863.38	1624.04
863.55	1652.71
863.73	1605.61
863.90	1662.95
864.08	1589.22
864.25	1671.14
864.43	1591.27
864.60	1648.61
864.77	1617.90
864.95	1667.05
865.12	1515.50
865.30	1691.62
865.47	1644.52
865.64	1789.92
865.82	1562.60
865.99	1753.06
866.17	1669.09
866.34	1767.40
866.51	1544.17
866.69	1654.76
866.86	1820.64
867.04	1742.82
867.21	1646.57
867.38	1624.04
867.56	1662.95
867.73	1689.57
867.91	1593.32
868.08	1710.05
868.25	1624.04
868.43	1646.57
868.60	1615.85
868.78	1556.46
868.95	1693.67
869.12	1683.43
869.30	1576.94
869.47	1689.57
869.64	1703.91
869.82	1562.60
869.99	1665.00
870.16	1665.00
870.34	1667.05
870.51	1763.30
870.69	1585.13
870.86	1660.90
871.03	1673.19
871.21	1601.51
871.38	1777.64
871.55	1708.01
871.73	1667.05
871.90	1611.75
872.07	1609.70
872.25	1550.31
872.42	1544.17
872.59	1560.55
872.77	1636.33
872.94	1605.61
873.11	1685.48
873.29	1658.85
873.46	1634.28
873.63	1648.61
873.81	1671.14
873.98	1787.88
874.15	1615.85
874.33	1619.94
874.50	1722.34
874.67	1687.53
874.85	1609.70
875.02	1632.23
875.19	1611.75
875.37	1687.53
875.54	1570.79
875.71	1626.09
875.88	1636.33
876.06	1603.56
876.23	1732.58
876.40	1681.38
876.58	1656.81
876.75	1689.57
876.92	1632.23
877.10	1650.66
877.27	1613.80
877.44	1736.68
877.61	1597.42
877.79	1685.48
877.96	1738.73
878.13	1656.81
878.31	1585.13
878.48	1689.57
878.65	1697.77
878.82	1619.94
879.00	1548.26
879.17	1667.05
879.34	1546.22
879.51	1554.41
879.69	1648.61
879.86	1583.08
880.03	1665.00
880.21	1585.13
880.38	1597.42
880.55	1724.39
880.72	1724.39
880.90	1544.17
881.07	1601.51
881.24	1642.47
881.41	1609.70
881.59	1683.43
881.76	1632.23
881.93	1714.15
882.10	1644.52
882.28	1654.76
882.45	1718.25
882.62	1585.13
882.79	1738.73
882.96	1574.89
883.14	1574.89
883.31	1665.00
883.48	1589.22
883.65	1662.95
883.83	1642.47
884.00	1615.85
884.17	1671.14
884.34	1636.33
884.51	1705.96
884.69	1685.48
884.86	1626.09
885.03	1691.62
885.20	1490.92
885.38	1748.97
885.55	1716.20
885.72	1662.95
885.89	1589.22
886.06	1658.85
886.24	1562.60
886.41	1617.90
886.58	1722.34
886.75	1613.80
886.92	1638.38
887.10	1562.60
887.27	1597.42
887.44	1683.43
887.61	1748.97
887.78	1757.16
887.95	1628.14
888.13	1615.85
888.30	1617.90
888.47	1679.33
888.64	1658.85
888.81	1658.85
888.99	1566.70
889.16	1550.31
889.33	1589.22
889.50	1665.00
889.67	1667.05
889.84	1708.01
890.01	1740.77
890.19	1767.40
890.36	1658.85
890.53	1654.76
890.70	1691.62
890.87	1773.54
891.04	1683.43
891.22	1705.96
891.39	1558.50
891.56	1718.25
891.73	1609.70
891.90	1654.76
892.07	1574.89
892.24	1714.15
892.42	1607.66
892.59	1615.85
892.76	1734.63
892.93	1607.66
893.10	1732.58
893.27	1628.14
893.44	1597.42
893.61	1673.19
893.79	1685.48
893.96	1617.90
894.13	1593.32
894.30	1585.13
894.47	1695.72
894.64	1697.77
894.81	1632.23
894.98	1632.23
895.15	1734.63
895.33	1708.01
895.50	1560.55
895.67	1550.31
895.84	1642.47
896.01	1716.20
896.18	1597.42
896.35	1781.73
896.52	1658.85
896.69	1583.08
896.86	1656.81
897.04	1699.81
897.21	1642.47
897.38	1685.48
897.55	1665.00
897.72	1660.90
897.89	1638.38
898.06	1722.34
898.23	1615.85
898.40	1609.70
898.57	1628.14
898.74	1644.52
898.91	1611.75
899.08	1591.27
899.26	1708.01
899.43	1730.53
899.60	1652.71
899.77	1632.23
899.94	1617.90
900.11	1673.19
900.28	1568.74
900.45	1619.94
900.62	1615.85
900.79	1650.66
900.96	1654.76
901.13	1648.61
901.30	1615.85
901.47	1560.55
901.64	1599.46
901.81	1753.06
901.98	1617.90
902.15	1644.52
902.32	1572.84
902.49	1665.00
902.66	1677.29
902.83	1648.61
903.01	1566.70
903.18	1605.61
903.35	1648.61
903.52	1667.05
903.69	1691.62
903.86	1607.66
904.03	1576.94
904.20	1675.24
904.37	1691.62
904.54	1583.08
904.71	1634.28
904.88	1646.57
905.05	1538.02
905.22	1636.33
905.39	1554.41
905.56	1621.99
905.73	1480.68
905.90	1581.03
906.07	1667.05
906.24	1699.81
906.41	1662.95
906.58	1642.47
906.75	1486.83
906.92	1597.42
907.09	1619.94
907.26	1720.29
907.43	1578.98
907.60	1650.66
907.77	1613.80
907.93	1671.14
908.10	1562.60
908.27	1689.57
908.44	1595.37
908.61	1566.70
908.78	1650.66
908.95	1675.24
909.12	1710.05
909.29	1583.08
909.46	1583.08
909.63	1693.67
909.80	1599.46
909.97	1650.66
910.14	1593.32
910.31	1581.03
910.48	1667.05
910.65	1574.89
910.82	1605.61
910.99	1654.76
911.16	1687.53
911.33	1574.89
911.50	1615.85
911.66	1593.32
911.83	1626.09
912.00	1650.66
912.17	1535.98
912.34	1566.70
912.51	1581.03
912.68	1576.94
912.85	1687.53
913.02	1669.09
913.19	1617.90
913.36	1656.81
913.53	1705.96
913.70	1675.24
913.86	1650.66
914.03	1613.80
914.20	1646.57
914.37	1615.85
914.54	1609.70
914.71	1720.29
914.88	1630.18
915.05	1646.57
915.22	1642.47
915.39	1675.24
915.55	1642.47
915.72	1558.50
915.89	1597.42
916.06	1658.85
916.23	1640.42
916.40	1705.96
916.57	1562.60
916.74	1617.90
916.91	1671.14
917.07	1480.68
917.24	1591.27
917.41	1646.57
917.58	1603.56
917.75	1640.42
917.92	1560.55
918.09	1548.26
918.26	1583.08
918.42	1630.18
918.59	1691.62
918.76	1591.27
918.93	1597.42
919.10	1626.09
919.27	1619.94
919.44	1740.77
919.60	1705.96
919.77	1597.42
919.94	1689.57
920.11	1628.14
920.28	1728.49
920.45	1531.88
920.61	1556.46
920.78	1626.09
920.95	1691.62
921.12	1628.14
921.29	1640.42
921.46	1578.98
921.62	1566.70
921.79	1574.89
921.96	1617.90
922.13	1726.44
922.30	1667.05
922.47	1658.85
922.63	1665.00
922.80	1607.66
922.97	1503.21
923.14	1519.59
923.31	1597.42
923.47	1617.90
923.64	1712.10
923.81	1581.03
923.98	1669.09
924.15	1548.26
924.32	1656.81
924.48	1671.14
924.65	1697.77
924.82	1576.94
924.99	1626.09
925.15	1597.42
925.32	1763.30
925.49	1591.27
925.66	1626.09
925.83	1576.94
925.99	1619.94
926.16	1818.60
926.33	1652.71
926.50	1517.54
926.67	1669.09
926.83	1658.85
927.00	1683.43
927.17	1634.28
927.34	1529.83
927.50	1724.39
927.67	1814.50
927.84	1751.01
928.01	1673.19
928.17	1650.66
928.34	1632.23
928.51	1585.13
928.68	1621.99
928.84	1632.23
929.01	1621.99
929.18	1587.18
929.35	1652.71
929.51	1716.20
929.68	1593.32
929.85	1630.18
930.02	1697.77
930.18	1511.40
930.35	1671.14
930.52	1607.66
930.69	1626.09
930.85	1652.71
931.02	1589.22
931.19	1624.04
931.36	1595.37
931.52	1642.47
931.69	1665.00
931.86	1671.14
932.02	1636.33
932.19	1619.94
932.36	1632.23
932.53	1722.34
932.69	1679.33
932.86	1738.73
933.03	1624.04
933.19	1523.69
933.36	1699.81
933.53	1726.44
933.70	1587.18
933.86	1626.09
934.03	1675.24
934.20	1550.31
934.36	1671.14
934.53	1605.61
934.70	1591.27
934.86	1630.18
935.03	1628.14
935.20	1638.38
935.36	1640.42
935.53	1599.46
935.70	1589.22
935.86	1642.47
936.03	1468.39
936.20	1531.88
936.36	1562.60
936.53	1640.42
936.70	1587.18
936.86	1710.05
937.03	1648.61
937.20	1572.84
937.36	1658.85
937.53	1560.55
937.70	1570.79
937.86	1667.05
938.03	1619.94
938.20	1722.34
938.36	1626.09
938.53	1656.81
938.70	1546.22
938.86	1685.48
939.03	1581.03
939.20	1558.50
939.36	1638.38
939.53	1761.25
939.70	1912.80
939.86	1607.66
940.03	1636.33
940.19	1601.51
940.36	1710.05
940.53	1648.61
940.69	1624.04
940.86	1675.24
941.03	1601.51
941.19	1531.88
941.36	1699.81
941.52	1667.05
941.69	1712.10
941.86	1603.56
942.02	1683.43
942.19	1705.96
942.35	1703.91
942.52	1691.62
942.69	1665.00
942.85	1560.55
943.02	1644.52
943.18	1656.81
943.35	1683.43
943.52	1558.50
943.68	1562.60
943.85	1619.94
944.01	1644.52
944.18	1593.32
944.35	1634.28
944.51	1595.37
944.68	1572.84
944.84	1636.33
945.01	1585.13
945.17	1630.18
945.34	1632.23
945.51	1640.42
945.67	1636.33
945.84	1628.14
946.00	1564.65
946.17	1634.28
946.33	1632.23
946.50	1738.73
946.67	1542.12
946.83	1583.08
947.00	1683.43
947.16	1632.23
947.33	1574.89
947.49	1613.80
947.66	1605.61
947.82	1667.05
947.99	1585.13
948.16	1656.81
948.32	1644.52
948.49	1667.05
948.65	1662.95
948.82	1667.05
948.98	1691.62
949.15	1630.18
949.31	1638.38
949.48	1609.70
949.64	1570.79
949.81	1591.27
949.97	1552.36
950.14	1638.38
950.30	1529.83
950.47	1644.52
950.63	1607.66
950.80	1619.94
950.96	1593.32
951.13	1677.29
951.30	1640.42
951.46	1654.76
951.63	1691.62
951.79	1634.28
951.96	1716.20
952.12	1593.32
952.29	1695.72
952.45	1525.74
952.62	1632.23
952.78	1589.22
952.94	1595.37
953.11	1556.46
953.27	1578.98
953.44	1759.21
953.60	1585.13
953.77	1654.76
953.93	1589.22
954.10	1632.23
954.26	1601.51
954.43	1593.32
954.59	1693.67
954.76	1683.43
954.92	1615.85
955.09	1613.80
955.25	1589.22
955.42	1611.75
955.58	1724.39
955.75	1619.94
955.91	1560.55
956.07	1642.47
956.24	1662.95
956.40	1589.22
956.57	1611.75
956.73	1607.66
956.90	1644.52
957.06	1546.22
957.23	1665.00
957.39	1605.61
957.56	1589.22
957.72	1538.02
957.88	1589.22
958.05	1683.43
958.21	1658.85
958.38	1650.66
958.54	1613.80
958.71	1720.29
958.87	1626.09
959.03	1601.51
959.20	1628.14
959.36	1564.65
959.53	1640.42
959.69	1597.42
959.85	1640.42
960.02	1519.59
960.18	1583.08
960.35	1667.05
960.51	1675.24
960.68	1562.60
960.84	1617.90
961.00	1601.51
961.17	1599.46
961.33	1583.08
961.50	1548.26
961.66	1634.28
961.82	1648.61
961.99	1587.18
962.15	1585.13
962.31	1589.22
962.48	1601.51
962.64	1640.42
962.81	1646.57
962.97	1585.13
963.13	1595.37
963.30	1652.71
963.46	1599.46
963.62	1513.45
963.79	1599.46
963.95	1634.28
964.12	1652.71
964.28	1640.42
964.44	1656.81
964.61	1693.67
964.77	1634.28
964.93	1738.73
965.10	1585.13
965.26	1542.12
965.42	1638.38
965.59	1609.70
965.75	1583.08
965.92	1605.61
966.08	1603.56
966.24	1609.70
966.41	1595.37
966.57	1568.74
966.73	1587.18
966.90	1722.34
967.06	1619.94
967.22	1572.84
967.39	1562.60
967.55	1570.79
967.71	1611.75
967.88	1626.09
968.04	1589.22
968.20	1542.12
968.37	1605.61
968.53	1585.13
968.69	1638.38
968.85	1669.09
969.02	1662.95
969.18	1691.62
969.34	1605.61
969.51	1609.70
969.67	1681.38
969.83	1505.26
970.00	1658.85
970.16	1648.61
970.32	1644.52
970.48	1744.87
970.65	1587.18
970.81	1626.09
970.97	1705.96
971.14	1558.50
971.30	1658.85
971.46	1562.60
971.63	1648.61
971.79	1646.57
971.95	1619.94
972.11	1535.98
972.28	1593.32
972.44	1626.09
972.60	1521.64
972.76	1650.66
972.93	1665.00
973.09	1753.06
973.25	1679.33
973.42	1542.12
973.58	1720.29
973.74	1675.24
973.90	1761.25
974.07	1607.66
974.23	1611.75
974.39	1626.09
974.55	1601.51
974.72	1671.14
974.88	1519.59
975.04	1650.66
975.20	1540.07
975.37	1671.14
975.53	1585.13
975.69	1611.75
975.85	1646.57
976.01	1595.37
976.18	1624.04
976.34	1630.18
976.50	1669.09
976.66	1662.95
976.83	1558.50
976.99	1581.03
977.15	1693.67
977.31	1470.44
977.47	1675.24
977.64	1665.00
977.80	1609.70
977.96	1609.70
978.12	1683.43
978.29	1697.77
978.45	1529.83
978.61	1540.07
978.77	1705.96
978.93	1615.85
979.10	1632.23
979.26	1611.75
979.42	1665.00
979.58	1540.07
979.74	1638.38
979.91	1695.72
980.07	1533.93
980.23	1634.28
980.39	1560.55
980.55	1658.85
980.71	1597.42
980.88	1511.40
981.04	1583.08
981.20	1671.14
981.36	1648.61
981.52	1578.98
981.68	1544.17
981.85	1609.70
982.01	1542.12
982.17	1523.69
982.33	1595.37
982.49	1658.85
982.65	1593.32
982.82	1597.42
982.98	1630.18
983.14	1544.17
983.30	1708.01
983.46	1681.38
983.62	1642.47
983.79	1626.09
983.95	1593.32
984.11	1480.68
984.27	1562.60
984.43	1652.71
984.59	1523.69
984.75	1740.77
984.91	1650.66
985.08	1638.38
985.24	1509.35
985.40	1486.83
985.56	1677.29
985.72	1632.23
985.88	1640.42
986.04	1640.42
986.20	1554.41
986.37	1675.24
986.53	1521.64
986.69	1626.09
986.85	1574.89
987.01	1503.21
987.17	1648.61
987.33	1675.24
987.49	1533.93
987.65	1660.90
987.82	1603.56
987.98	1525.74
988.14	1583.08
988.30	1667.05
988.46	1554.41
988.62	1615.85
988.78	1621.99
988.94	1644.52
989.10	1581.03
989.26	1542.12
989.42	1585.13
989.59	1562.60
989.75	1644.52
989.91	1628.14
990.07	1564.65
990.23	1583.08
990.39	1671.14
990.55	1593.32
990.71	1585.13
990.87	1585.13
991.03	1683.43
991.19	1560.55
991.35	1601.51
991.51	1609.70
991.67	1673.19
991.83	1554.41
992.00	1611.75
992.16	1632.23
992.32	1712.10
992.48	1642.47
992.64	1525.74
992.80	1648.61
992.96	1566.70
993.12	1677.29
993.28	1591.27
993.44	1554.41
993.60	1636.33
993.76	1609.70
993.92	1667.05
994.08	1697.77
994.24	1617.90
994.40	1621.99
994.56	1679.33
994.72	1535.98
994.88	1533.93
995.04	1607.66
995.20	1566.70
995.36	1574.89
995.52	1648.61
995.68	1656.81
995.84	1517.54
996.00	1695.72
996.16	1654.76
996.32	1527.78
996.48	1542.12
996.64	1726.44
996.80	1544.17
996.96	1597.42
997.12	1576.94
997.28	1552.36
997.44	1603.56
997.60	1626.09
997.76	1617.90
997.92	1585.13
998.08	1558.50
998.24	1564.65
998.40	1636.33
998.56	1689.57
998.72	1533.93
998.88	1597.42
999.04	1624.04
999.20	1679.33
999.36	1572.84
999.52	1781.73
999.68	1581.03
999.84	1628.14
1000.00	1646.57
1000.16	1744.87
1000.32	1585.13
1000.48	1753.06
1000.64	1556.46
1000.80	1597.42
1000.95	1513.45
1001.11	1632.23
1001.27	1568.74
1001.43	1646.57
1001.59	1562.60
1001.75	1585.13
1001.91	1599.46
1002.07	1601.51
1002.23	1617.90
1002.39	1570.79
1002.55	1691.62
1002.71	1554.41
1002.87	1542.12
1003.03	1605.61
1003.19	1554.41
1003.34	1638.38
1003.50	1556.46
1003.66	1650.66
1003.82	1626.09
1003.98	1583.08
1004.14	1646.57
1004.30	1550.31
1004.46	1589.22
1004.62	1603.56
1004.78	1558.50
1004.94	1634.28
1005.09	1630.18
1005.25	1617.90
1005.41	1576.94
1005.57	1605.61
1005.73	1603.56
1005.89	1615.85
1006.05	1650.66
1006.21	1576.94
1006.37	1595.37
1006.52	1607.66
1006.68	1503.21
1006.84	1716.20
1007.00	1548.26
1007.16	1558.50
1007.32	1589.22
1007.48	1630.18
1007.64	1683.43
1007.79	1662.95
1007.95	1484.78
1008.11	1744.87
1008.27	1583.08
1008.43	1644.52
1008.59	1548.26
1008.75	1597.42
1008.91	1681.38
1009.06	1505.26
1009.22	1714.15
1009.38	1533.93
1009.54	1683.43
1009.70	1607.66
1009.86	1675.24
1010.01	1669.09
1010.17	1587.18
1010.33	1658.85
1010.49	1650.66
1010.65	1730.53
1010.81	1521.64
1010.96	1640.42
1011.12	1533.93
1011.28	1542.12
1011.44	1673.19
1011.60	1638.38
1011.76	1574.89
1011.91	1695.72
1012.07	1507.30
1012.23	1511.40
1012.39	1576.94
1012.55	1591.27
1012.71	1583.08
1012.86	1499.11
1013.02	1632.23
1013.18	1613.80
1013.34	1613.80
1013.50	1705.96
1013.65	1675.24
1013.81	1583.08
1013.97	1595.37
1014.13	1609.70
1014.29	1626.09
1014.44	1689.57
1014.60	1626.09
1014.76	1585.13
1014.92	1601.51
1015.07	1679.33
1015.23	1591.27
1015.39	1685.48
1015.55	1525.74
1015.71	1548.26
1015.86	1601.51
1016.02	1589.22
1016.18	1452.01
1016.34	1638.38
1016.49	1671.14
1016.65	1669.09
1016.81	1634.28
1016.97	1665.00
1017.12	1665.00
1017.28	1540.07
1017.44	1583.08
1017.60	1568.74
1017.75	1638.38
1017.91	1581.03
1018.07	1636.33
1018.23	1595.37
1018.38	1501.16
1018.54	1568.74
1018.70	1619.94
1018.86	1636.33
1019.01	1562.60
1019.17	1562.60
1019.33	1638.38
1019.49	1611.75
1019.64	1562.60
1019.80	1626.09
1019.96	1585.13
1020.12	1675.24
1020.27	1525.74
1020.43	1591.27
1020.59	1658.85
1020.74	1603.56
1020.90	1705.96
1021.06	1544.17
1021.22	1632.23
1021.37	1669.09
1021.53	1556.46
1021.69	1585.13
1021.84	1511.40
1022.00	1642.47
1022.16	1558.50
1022.31	1581.03
1022.47	1648.61
1022.63	1656.81
1022.79	1501.16
1022.94	1578.98
1023.10	1695.72
1023.26	1546.22
1023.41	1607.66
1023.57	1595.37
1023.73	1675.24
1023.88	1634.28
1024.04	1509.35
1024.20	1648.61
1024.35	1613.80
1024.51	1634.28
1024.67	1650.66
1024.82	1617.90
1024.98	1587.18
1025.14	1658.85
1025.29	1605.61
1025.45	1675.24
1025.61	1599.46
1025.76	1607.66
1025.92	1560.55
1026.08	1617.90
1026.23	1675.24
1026.39	1671.14
1026.55	1513.45
1026.70	1646.57
1026.86	1634.28
1027.02	1662.95
1027.17	1654.76
1027.33	1724.39
1027.48	1560.55
1027.64	1548.26
1027.80	1619.94
1027.95	1673.19
1028.11	1503.21
1028.27	1687.53
1028.42	1527.78
1028.58	1603.56
1028.73	1601.51
1028.89	1492.97
1029.05	1650.66
1029.20	1632.23
>>>>>End Processed Spectral Data<<<<<
