SpectraSuite Data File
++++++++++++++++++++++++++++++++++++
Date: Fri Jun 02 14:47:53 CEST 2017
User: INFO_000
Dark Spectrum Present: No
Reference Spectrum Present: No
Number of Sampled Component Spectra: 1
Spectrometers: USB4H00879
Integration Time (usec): 80000 (USB4H00879)
Spectra Averaged: 1 (USB4H00879)
Boxcar Smoothing: 0 (USB4H00879)
Correct for Electrical Dark: No (USB4H00879)
Strobe/Lamp Enabled: No (USB4H00879)
Correct for Detector Non-linearity: No (USB4H00879)
Correct for Stray Light: No (USB4H00879)
Number of Pixels in Processed Spectrum: 3648
>>>>>Begin Processed Spectral Data<<<<<
345.13	1251.31
345.34	1251.31
345.56	1251.31
345.78	1322.99
345.99	1232.88
346.21	1773.54
346.42	1710.05
346.64	1669.09
346.86	1722.34
347.07	1646.57
347.29	1712.10
347.50	1667.05
347.72	1646.57
347.94	1763.30
348.15	1611.75
348.37	1558.50
348.59	1656.81
348.80	1718.25
349.02	1732.58
349.23	1789.92
349.45	1724.39
349.67	1812.45
349.88	1697.77
350.10	1843.17
350.31	1695.72
350.53	1662.95
350.75	1845.22
350.96	1658.85
351.18	1667.05
351.39	1738.73
351.61	1638.38
351.82	1730.53
352.04	1787.88
352.26	1718.25
352.47	1710.05
352.69	1771.49
352.90	1617.90
353.12	1740.77
353.34	1726.44
353.55	1798.12
353.77	1679.33
353.98	1632.23
354.20	1650.66
354.41	1724.39
354.63	1718.25
354.85	1845.22
355.06	1753.06
355.28	1578.98
355.49	1765.35
355.71	1769.44
355.92	1638.38
356.14	1722.34
356.35	1687.53
356.57	1701.86
356.79	1746.92
357.00	1648.61
357.22	1820.64
357.43	1691.62
357.65	1765.35
357.86	1648.61
358.08	1693.67
358.29	1693.67
358.51	1753.06
358.72	1744.87
358.94	1755.11
359.16	1673.19
359.37	1699.81
359.59	1724.39
359.80	1732.58
360.02	1751.01
360.23	1789.92
360.45	1726.44
360.66	1708.01
360.88	1634.28
361.09	1673.19
361.31	1689.57
361.52	1744.87
361.74	1894.37
361.95	1812.45
362.17	1708.01
362.38	1785.83
362.60	1806.31
362.81	1703.91
363.03	1613.80
363.24	1736.68
363.46	1763.30
363.67	1730.53
363.89	1755.11
364.10	1703.91
364.32	1671.14
364.53	1679.33
364.75	1665.00
364.96	1728.49
365.18	1740.77
365.39	1691.62
365.61	1689.57
365.82	1798.12
366.04	1675.24
366.25	1593.32
366.47	1691.62
366.68	1648.61
366.90	1658.85
367.11	1714.15
367.33	1738.73
367.54	1771.49
367.76	1691.62
367.97	1796.07
368.19	1626.09
368.40	1773.54
368.62	1667.05
368.83	1642.47
369.05	1781.73
369.26	1613.80
369.48	1681.38
369.69	1683.43
369.91	1726.44
370.12	1638.38
370.33	1714.15
370.55	1576.94
370.76	1638.38
370.98	1791.97
371.19	1675.24
371.41	1626.09
371.62	1705.96
371.84	1673.19
372.05	1748.97
372.27	1693.67
372.48	1683.43
372.69	1716.20
372.91	1769.44
373.12	1734.63
373.34	1621.99
373.55	1771.49
373.77	1785.83
373.98	1710.05
374.20	1775.59
374.41	1830.88
374.62	1691.62
374.84	1685.48
375.05	1732.58
375.27	1742.82
375.48	1718.25
375.70	1781.73
375.91	1703.91
376.12	1751.01
376.34	1681.38
376.55	1734.63
376.77	1722.34
376.98	1585.13
377.19	1568.74
377.41	1658.85
377.62	1644.52
377.84	1665.00
378.05	1794.02
378.27	1605.61
378.48	1798.12
378.69	1841.12
378.91	1808.36
379.12	1742.82
379.34	1730.53
379.55	1763.30
379.76	1701.86
379.98	1693.67
380.19	1746.92
380.41	1662.95
380.62	1761.25
380.83	1710.05
381.05	1621.99
381.26	1808.36
381.47	1642.47
381.69	1705.96
381.90	1710.05
382.12	1656.81
382.33	1699.81
382.54	1720.29
382.76	1701.86
382.97	1783.78
383.19	1550.31
383.40	1699.81
383.61	1675.24
383.83	1613.80
384.04	1601.51
384.25	1705.96
384.47	1683.43
384.68	1730.53
384.89	1638.38
385.11	1679.33
385.32	1660.90
385.54	1630.18
385.75	1736.68
385.96	1724.39
386.18	1712.10
386.39	1716.20
386.60	1644.52
386.82	1714.15
387.03	1662.95
387.24	1740.77
387.46	1697.77
387.67	1740.77
387.88	1710.05
388.10	1720.29
388.31	1699.81
388.52	1814.50
388.74	1748.97
388.95	1648.61
389.16	1708.01
389.38	1636.33
389.59	1716.20
389.80	1726.44
390.02	1665.00
390.23	1771.49
390.44	1656.81
390.66	1667.05
390.87	1667.05
391.08	1703.91
391.30	1816.55
391.51	1775.59
391.72	1814.50
391.94	1730.53
392.15	1689.57
392.36	1679.33
392.58	1669.09
392.79	1710.05
393.00	1726.44
393.22	1787.88
393.43	1718.25
393.64	1814.50
393.85	1740.77
394.07	1628.14
394.28	1650.66
394.49	1710.05
394.71	1820.64
394.92	1810.40
395.13	1654.76
395.35	1619.94
395.56	1613.80
395.77	1705.96
395.98	1699.81
396.20	1720.29
396.41	1644.52
396.62	1722.34
396.84	1632.23
397.05	1611.75
397.26	1662.95
397.47	1736.68
397.69	1658.85
397.90	1820.64
398.11	1705.96
398.32	1699.81
398.54	1638.38
398.75	1685.48
398.96	1660.90
399.18	1777.64
399.39	1624.04
399.60	1708.01
399.81	1724.39
400.03	1603.56
400.24	1961.95
400.45	1671.14
400.66	1708.01
400.88	1570.79
401.09	1880.04
401.30	1781.73
401.51	1738.73
401.73	1710.05
401.94	1751.01
402.15	1597.42
402.36	1757.16
402.58	1697.77
402.79	1701.86
403.00	1685.48
403.21	1712.10
403.43	1755.11
403.64	1687.53
403.85	1677.29
404.06	1839.08
404.27	1638.38
404.49	1689.57
404.70	1714.15
404.91	1738.73
405.12	1757.16
405.34	1681.38
405.55	1828.84
405.76	1634.28
405.97	1677.29
406.19	1722.34
406.40	1605.61
406.61	1724.39
406.82	1662.95
407.03	1697.77
407.25	1708.01
407.46	1830.88
407.67	1759.21
407.88	1761.25
408.09	1732.58
408.31	1705.96
408.52	1769.44
408.73	1601.51
408.94	1660.90
409.15	1716.20
409.37	1781.73
409.58	1687.53
409.79	1724.39
410.00	1824.74
410.21	1628.14
410.43	1654.76
410.64	1560.55
410.85	1744.87
411.06	1722.34
411.27	1669.09
411.48	1757.16
411.70	1671.14
411.91	1712.10
412.12	1771.49
412.33	1720.29
412.54	1609.70
412.76	1783.78
412.97	1847.27
413.18	1667.05
413.39	1728.49
413.60	1716.20
413.81	1603.56
414.03	1654.76
414.24	1640.42
414.45	1787.88
414.66	1662.95
414.87	1724.39
415.08	1646.57
415.30	1738.73
415.51	1728.49
415.72	1671.14
415.93	1718.25
416.14	1679.33
416.35	1681.38
416.56	1689.57
416.78	1722.34
416.99	1705.96
417.20	1685.48
417.41	1728.49
417.62	1724.39
417.83	1679.33
418.04	1675.24
418.26	1757.16
418.47	1697.77
418.68	1730.53
418.89	1718.25
419.10	1859.56
419.31	1718.25
419.52	1714.15
419.73	1761.25
419.95	1742.82
420.16	1667.05
420.37	1705.96
420.58	1689.57
420.79	1581.03
421.00	1697.77
421.21	1636.33
421.42	1658.85
421.63	1675.24
421.85	1701.86
422.06	1718.25
422.27	1642.47
422.48	1656.81
422.69	1660.90
422.90	1646.57
423.11	1574.89
423.32	1777.64
423.53	1732.58
423.75	1634.28
423.96	1708.01
424.17	1726.44
424.38	1775.59
424.59	1685.48
424.80	1740.77
425.01	1613.80
425.22	1617.90
425.43	1720.29
425.64	1765.35
425.85	1705.96
426.06	1708.01
426.28	1726.44
426.49	1634.28
426.70	1681.38
426.91	1671.14
427.12	1732.58
427.33	1716.20
427.54	1708.01
427.75	1699.81
427.96	1724.39
428.17	1744.87
428.38	1701.86
428.59	1693.67
428.80	1640.42
429.01	1665.00
429.23	1662.95
429.44	1701.86
429.65	1677.29
429.86	1728.49
430.07	1644.52
430.28	1630.18
430.49	1691.62
430.70	1802.21
430.91	1884.13
431.12	1650.66
431.33	1650.66
431.54	1734.63
431.75	1628.14
431.96	1685.48
432.17	1681.38
432.38	1748.97
432.59	1816.55
432.80	1775.59
433.01	1705.96
433.22	1658.85
433.43	1689.57
433.64	1697.77
433.85	1724.39
434.06	1746.92
434.27	1660.90
434.49	1726.44
434.70	1775.59
434.91	1683.43
435.12	1716.20
435.33	1642.47
435.54	1718.25
435.75	1634.28
435.96	1744.87
436.17	1656.81
436.38	1794.02
436.59	1757.16
436.80	1636.33
437.01	1761.25
437.22	1791.97
437.43	1716.20
437.64	1628.14
437.85	1697.77
438.06	1748.97
438.27	1728.49
438.48	1724.39
438.69	1753.06
438.90	1675.24
439.11	1642.47
439.32	1748.97
439.53	1560.55
439.74	1640.42
439.95	1781.73
440.16	1662.95
440.37	1654.76
440.57	1638.38
440.78	1658.85
440.99	1699.81
441.20	1695.72
441.41	1617.90
441.62	1609.70
441.83	1654.76
442.04	1638.38
442.25	1662.95
442.46	1654.76
442.67	1595.37
442.88	1845.22
443.09	1671.14
443.30	1605.61
443.51	1617.90
443.72	1744.87
443.93	1718.25
444.14	1802.21
444.35	1640.42
444.56	1626.09
444.77	1660.90
444.98	1724.39
445.19	1740.77
445.40	1689.57
445.61	1650.66
445.81	1650.66
446.02	1773.54
446.23	1634.28
446.44	1591.27
446.65	1724.39
446.86	1732.58
447.07	1837.03
447.28	1671.14
447.49	1689.57
447.70	1611.75
447.91	1699.81
448.12	1693.67
448.33	1724.39
448.54	1705.96
448.74	1716.20
448.95	1673.19
449.16	1748.97
449.37	1667.05
449.58	1695.72
449.79	1714.15
450.00	1699.81
450.21	1564.65
450.42	1722.34
450.63	1650.66
450.84	1722.34
451.05	1757.16
451.25	1597.42
451.46	1632.23
451.67	1744.87
451.88	1699.81
452.09	1777.64
452.30	1642.47
452.51	1673.19
452.72	1773.54
452.93	1806.31
453.13	1716.20
453.34	1634.28
453.55	1728.49
453.76	1632.23
453.97	1673.19
454.18	1624.04
454.39	1683.43
454.60	1611.75
454.81	1693.67
455.01	1652.71
455.22	1658.85
455.43	1650.66
455.64	1716.20
455.85	1685.48
456.06	1771.49
456.27	1753.06
456.48	1630.18
456.68	1757.16
456.89	1785.83
457.10	1628.14
457.31	1710.05
457.52	1720.29
457.73	1617.90
457.94	1757.16
458.14	1562.60
458.35	1705.96
458.56	1679.33
458.77	1691.62
458.98	1724.39
459.19	1667.05
459.39	1726.44
459.60	1722.34
459.81	1654.76
460.02	1691.62
460.23	1714.15
460.44	1617.90
460.65	1697.77
460.85	1611.75
461.06	1624.04
461.27	1632.23
461.48	1634.28
461.69	1665.00
461.89	1542.12
462.10	1554.41
462.31	1613.80
462.52	1589.22
462.73	1636.33
462.94	1683.43
463.14	1732.58
463.35	1667.05
463.56	1734.63
463.77	1658.85
463.98	1615.85
464.18	1644.52
464.39	1822.69
464.60	1748.97
464.81	1454.06
465.02	1662.95
465.23	1652.71
465.43	1740.77
465.64	1640.42
465.85	1681.38
466.06	1771.49
466.27	1738.73
466.47	1689.57
466.68	1740.77
466.89	1630.18
467.10	1607.66
467.30	1621.99
467.51	1652.71
467.72	1730.53
467.93	1630.18
468.14	1638.38
468.34	1765.35
468.55	1701.86
468.76	1777.64
468.97	1720.29
469.17	1730.53
469.38	1744.87
469.59	1708.01
469.80	1705.96
470.01	1624.04
470.21	1603.56
470.42	1675.24
470.63	1740.77
470.84	1695.72
471.04	1662.95
471.25	1697.77
471.46	1746.92
471.67	1769.44
471.87	1613.80
472.08	1658.85
472.29	1675.24
472.50	1734.63
472.70	1679.33
472.91	1685.48
473.12	1552.36
473.33	1642.47
473.53	1699.81
473.74	1583.08
473.95	1748.97
474.16	1578.98
474.36	1574.89
474.57	1695.72
474.78	1679.33
474.99	1705.96
475.19	1759.21
475.40	1724.39
475.61	1753.06
475.81	1724.39
476.02	1679.33
476.23	1755.11
476.44	1630.18
476.64	1644.52
476.85	1658.85
477.06	1667.05
477.27	1718.25
477.47	1703.91
477.68	1714.15
477.89	1667.05
478.09	1681.38
478.30	1708.01
478.51	1683.43
478.71	1578.98
478.92	1736.68
479.13	1699.81
479.34	1617.90
479.54	1755.11
479.75	1621.99
479.96	1710.05
480.16	1578.98
480.37	1695.72
480.58	1597.42
480.78	1734.63
480.99	1638.38
481.20	1669.09
481.41	1716.20
481.61	1724.39
481.82	1712.10
482.03	1613.80
482.23	1665.00
482.44	1763.30
482.65	1877.99
482.85	1732.58
483.06	1650.66
483.27	1769.44
483.47	1712.10
483.68	1736.68
483.89	1773.54
484.09	1812.45
484.30	1701.86
484.51	1759.21
484.71	1687.53
484.92	1624.04
485.13	1732.58
485.33	1720.29
485.54	1650.66
485.75	1708.01
485.95	1746.92
486.16	1634.28
486.37	1683.43
486.57	1601.51
486.78	1714.15
486.98	1703.91
487.19	1679.33
487.40	1691.62
487.60	1654.76
487.81	1652.71
488.02	1599.46
488.22	1699.81
488.43	1798.12
488.64	1650.66
488.84	1703.91
489.05	1724.39
489.25	1722.34
489.46	1695.72
489.67	1724.39
489.87	1708.01
490.08	1740.77
490.29	1665.00
490.49	1884.13
490.70	1753.06
490.90	1732.58
491.11	1697.77
491.32	1687.53
491.52	1646.57
491.73	1689.57
491.94	1697.77
492.14	1654.76
492.35	1665.00
492.55	1705.96
492.76	1656.81
492.97	1660.90
493.17	1689.57
493.38	1742.82
493.58	1771.49
493.79	1714.15
494.00	1615.85
494.20	1665.00
494.41	1708.01
494.61	1714.15
494.82	1667.05
495.02	1656.81
495.23	1724.39
495.44	1667.05
495.64	1679.33
495.85	1669.09
496.05	1714.15
496.26	1705.96
496.47	1642.47
496.67	1656.81
496.88	1789.92
497.08	1683.43
497.29	1597.42
497.49	1759.21
497.70	1742.82
497.91	1665.00
498.11	1810.40
498.32	1697.77
498.52	1716.20
498.73	1703.91
498.93	1724.39
499.14	1785.83
499.34	1794.02
499.55	1746.92
499.76	1648.61
499.96	1683.43
500.17	1720.29
500.37	1781.73
500.58	1669.09
500.78	1646.57
500.99	1642.47
501.19	1658.85
501.40	1771.49
501.60	1585.13
501.81	1607.66
502.02	1716.20
502.22	1609.70
502.43	1650.66
502.63	1804.26
502.84	1753.06
503.04	1716.20
503.25	1714.15
503.45	1691.62
503.66	1652.71
503.86	1789.92
504.07	1726.44
504.27	1632.23
504.48	1701.86
504.68	1669.09
504.89	1810.40
505.09	1628.14
505.30	1697.77
505.50	1669.09
505.71	1662.95
505.91	1699.81
506.12	1705.96
506.32	1621.99
506.53	1617.90
506.73	1691.62
506.94	1646.57
507.14	1683.43
507.35	1765.35
507.55	1644.52
507.76	1769.44
507.96	1681.38
508.17	1742.82
508.37	1605.61
508.58	1773.54
508.78	1703.91
508.99	1798.12
509.19	1806.31
509.40	1699.81
509.60	1767.40
509.81	1810.40
510.01	1624.04
510.22	1724.39
510.42	1738.73
510.63	1761.25
510.83	1710.05
511.04	1714.15
511.24	1736.68
511.44	1673.19
511.65	1691.62
511.85	1703.91
512.06	1753.06
512.26	1705.96
512.47	1789.92
512.67	1720.29
512.88	1716.20
513.08	1595.37
513.29	1785.83
513.49	1650.66
513.69	1658.85
513.90	1640.42
514.10	1689.57
514.31	1726.44
514.51	1687.53
514.72	1720.29
514.92	1773.54
515.13	1748.97
515.33	1685.48
515.53	1656.81
515.74	1658.85
515.94	1732.58
516.15	1779.68
516.35	1574.89
516.56	1658.85
516.76	1640.42
516.96	1609.70
517.17	1671.14
517.37	1689.57
517.58	1556.46
517.78	1607.66
517.99	1775.59
518.19	1832.93
518.39	1730.53
518.60	1822.69
518.80	1613.80
519.01	1755.11
519.21	1646.57
519.41	1671.14
519.62	1660.90
519.82	1716.20
520.03	1660.90
520.23	1619.94
520.43	1658.85
520.64	1716.20
520.84	1785.83
521.05	1626.09
521.25	1804.26
521.45	1712.10
521.66	1636.33
521.86	1675.24
522.07	1673.19
522.27	1650.66
522.47	1583.08
522.68	1693.67
522.88	1693.67
523.08	1808.36
523.29	1535.98
523.49	1718.25
523.70	1636.33
523.90	1662.95
524.10	1677.29
524.31	1642.47
524.51	1576.94
524.71	1724.39
524.92	1708.01
525.12	1636.33
525.33	1775.59
525.53	1662.95
525.73	1761.25
525.94	1714.15
526.14	1716.20
526.34	1589.22
526.55	1697.77
526.75	1740.77
526.95	1767.40
527.16	1636.33
527.36	1701.86
527.56	1669.09
527.77	1617.90
527.97	1675.24
528.17	1787.88
528.38	1714.15
528.58	1728.49
528.78	1701.86
528.99	1662.95
529.19	1716.20
529.39	1679.33
529.60	1634.28
529.80	1716.20
530.00	1650.66
530.21	1630.18
530.41	1712.10
530.61	1728.49
530.82	1693.67
531.02	1681.38
531.22	1691.62
531.43	1708.01
531.63	1773.54
531.83	1683.43
532.04	1642.47
532.24	1695.72
532.44	1624.04
532.64	1818.60
532.85	1650.66
533.05	1681.38
533.25	1609.70
533.46	1691.62
533.66	1740.77
533.86	1638.38
534.07	1728.49
534.27	1755.11
534.47	1728.49
534.67	1701.86
534.88	1662.95
535.08	1751.01
535.28	1863.65
535.49	1654.76
535.69	1816.55
535.89	1703.91
536.09	1798.12
536.30	1621.99
536.50	1716.20
536.70	1720.29
536.91	1642.47
537.11	1763.30
537.31	1691.62
537.51	1695.72
537.72	1685.48
537.92	1671.14
538.12	1744.87
538.32	1761.25
538.53	1654.76
538.73	1685.48
538.93	1626.09
539.13	1621.99
539.34	1759.21
539.54	1566.70
539.74	1810.40
539.94	1667.05
540.15	1748.97
540.35	1718.25
540.55	1697.77
540.75	1634.28
540.96	1695.72
541.16	1644.52
541.36	1679.33
541.56	1730.53
541.77	1773.54
541.97	1779.68
542.17	1671.14
542.37	1755.11
542.58	1736.68
542.78	1800.16
542.98	1708.01
543.18	1693.67
543.38	1755.11
543.59	1744.87
543.79	1675.24
543.99	1640.42
544.19	1679.33
544.40	1757.16
544.60	1708.01
544.80	1669.09
545.00	1701.86
545.20	1689.57
545.41	1650.66
545.61	1564.65
545.81	1593.32
546.01	1783.78
546.21	1699.81
546.42	1642.47
546.62	1810.40
546.82	1611.75
547.02	1609.70
547.22	1669.09
547.43	1765.35
547.63	1689.57
547.83	1695.72
548.03	1626.09
548.23	1708.01
548.44	1681.38
548.64	1708.01
548.84	1720.29
549.04	1654.76
549.24	1794.02
549.45	1765.35
549.65	1667.05
549.85	1714.15
550.05	1691.62
550.25	1601.51
550.45	1806.31
550.66	1744.87
550.86	1626.09
551.06	1691.62
551.26	1718.25
551.46	1697.77
551.66	1671.14
551.87	1720.29
552.07	1605.61
552.27	1718.25
552.47	1761.25
552.67	1724.39
552.87	1716.20
553.07	1740.77
553.28	1681.38
553.48	1689.57
553.68	1656.81
553.88	1718.25
554.08	1744.87
554.28	1658.85
554.48	1650.66
554.69	1701.86
554.89	1611.75
555.09	1677.29
555.29	1519.59
555.49	1816.55
555.69	1648.61
555.89	1732.58
556.10	1669.09
556.30	1634.28
556.50	1726.44
556.70	1699.81
556.90	1712.10
557.10	1683.43
557.30	1673.19
557.50	1609.70
557.70	1673.19
557.91	1650.66
558.11	1679.33
558.31	1824.74
558.51	1820.64
558.71	1787.88
558.91	1734.63
559.11	1642.47
559.31	1658.85
559.51	1636.33
559.72	1789.92
559.92	1683.43
560.12	1628.14
560.32	1789.92
560.52	1761.25
560.72	1667.05
560.92	1777.64
561.12	1779.68
561.32	1658.85
561.52	1681.38
561.72	1871.84
561.93	1728.49
562.13	1634.28
562.33	1636.33
562.53	1714.15
562.73	1740.77
562.93	1662.95
563.13	1785.83
563.33	1738.73
563.53	1716.20
563.73	1703.91
563.93	1798.12
564.13	1845.22
564.33	1753.06
564.53	1708.01
564.74	1679.33
564.94	1673.19
565.14	1705.96
565.34	1699.81
565.54	1712.10
565.74	1705.96
565.94	1689.57
566.14	1697.77
566.34	1755.11
566.54	1687.53
566.74	1730.53
566.94	1753.06
567.14	1679.33
567.34	1703.91
567.54	1687.53
567.74	1681.38
567.94	1697.77
568.14	1724.39
568.34	1806.31
568.54	1671.14
568.74	1652.71
568.94	1736.68
569.14	1763.30
569.34	1736.68
569.54	1648.61
569.75	1744.87
569.95	1699.81
570.15	1734.63
570.35	1744.87
570.55	1605.61
570.75	1624.04
570.95	1724.39
571.15	1738.73
571.35	1771.49
571.55	1642.47
571.75	1685.48
571.95	1804.26
572.15	1656.81
572.35	1712.10
572.55	1691.62
572.75	1628.14
572.95	1679.33
573.15	1710.05
573.35	1748.97
573.55	1740.77
573.75	1681.38
573.95	1800.16
574.15	1650.66
574.35	1705.96
574.55	1681.38
574.75	1667.05
574.95	1703.91
575.15	1621.99
575.34	1701.86
575.54	1632.23
575.74	1658.85
575.94	1738.73
576.14	1593.32
576.34	1673.19
576.54	1701.86
576.74	1693.67
576.94	1601.51
577.14	1658.85
577.34	1787.88
577.54	1691.62
577.74	1605.61
577.94	1695.72
578.14	1617.90
578.34	1718.25
578.54	1570.79
578.74	1654.76
578.94	1732.58
579.14	1765.35
579.34	1593.32
579.54	1699.81
579.74	1681.38
579.94	1634.28
580.13	1679.33
580.33	1652.71
580.53	1673.19
580.73	1685.48
580.93	1712.10
581.13	1662.95
581.33	1736.68
581.53	1689.57
581.73	1683.43
581.93	1658.85
582.13	1732.58
582.33	1695.72
582.53	1654.76
582.73	1748.97
582.92	1656.81
583.12	1701.86
583.32	1722.34
583.52	1693.67
583.72	1777.64
583.92	1718.25
584.12	1681.38
584.32	1716.20
584.52	1619.94
584.72	1646.57
584.92	1665.00
585.11	1634.28
585.31	1746.92
585.51	1650.66
585.71	1714.15
585.91	1796.07
586.11	1632.23
586.31	1722.34
586.51	1636.33
586.71	1738.73
586.91	1681.38
587.10	1716.20
587.30	1744.87
587.50	1716.20
587.70	1626.09
587.90	1720.29
588.10	1632.23
588.30	1648.61
588.50	1685.48
588.69	1656.81
588.89	1679.33
589.09	1791.97
589.29	1593.32
589.49	1660.90
589.69	1710.05
589.89	1660.90
590.08	1705.96
590.28	1646.57
590.48	1705.96
590.68	1724.39
590.88	1654.76
591.08	1726.44
591.28	1724.39
591.47	1722.34
591.67	1552.36
591.87	1730.53
592.07	1769.44
592.27	1669.09
592.47	1601.51
592.67	1736.68
592.86	1675.24
593.06	1738.73
593.26	1699.81
593.46	1724.39
593.66	1591.27
593.86	1673.19
594.05	1693.67
594.25	1751.01
594.45	1650.66
594.65	1828.84
594.85	1724.39
595.05	1671.14
595.24	1763.30
595.44	1665.00
595.64	1597.42
595.84	1785.83
596.04	1675.24
596.23	1691.62
596.43	1687.53
596.63	1724.39
596.83	1718.25
597.03	1781.73
597.22	1740.77
597.42	1724.39
597.62	1751.01
597.82	1722.34
598.02	1699.81
598.21	1654.76
598.41	1642.47
598.61	1748.97
598.81	1720.29
599.01	1748.97
599.20	1738.73
599.40	1619.94
599.60	1738.73
599.80	1648.61
600.00	1824.74
600.19	1769.44
600.39	1691.62
600.59	1736.68
600.79	1775.59
600.98	1667.05
601.18	1669.09
601.38	1673.19
601.58	1644.52
601.78	1716.20
601.97	1814.50
602.17	1730.53
602.37	1751.01
602.57	1746.92
602.76	1691.62
602.96	1722.34
603.16	1693.67
603.36	1720.29
603.55	1718.25
603.75	1710.05
603.95	1726.44
604.15	1736.68
604.34	1685.48
604.54	1677.29
604.74	1728.49
604.94	1763.30
605.13	1697.77
605.33	1742.82
605.53	1646.57
605.73	1789.92
605.92	1638.38
606.12	1679.33
606.32	1650.66
606.52	1775.59
606.71	1718.25
606.91	1665.00
607.11	1667.05
607.30	1732.58
607.50	1652.71
607.70	1789.92
607.90	1656.81
608.09	1621.99
608.29	1728.49
608.49	1794.02
608.68	1728.49
608.88	1671.14
609.08	1550.31
609.28	1759.21
609.47	1679.33
609.67	1765.35
609.87	1708.01
610.06	1732.58
610.26	1683.43
610.46	1877.99
610.66	1621.99
610.85	1683.43
611.05	1757.16
611.25	1714.15
611.44	1683.43
611.64	1742.82
611.84	1710.05
612.03	1687.53
612.23	1699.81
612.43	1740.77
612.62	1705.96
612.82	1884.13
613.02	1763.30
613.21	1693.67
613.41	1742.82
613.61	1626.09
613.80	1671.14
614.00	1689.57
614.20	1798.12
614.39	1789.92
614.59	1687.53
614.79	1634.28
614.98	1646.57
615.18	1658.85
615.38	1630.18
615.57	1597.42
615.77	1812.45
615.97	1681.38
616.16	1662.95
616.36	1779.68
616.56	1710.05
616.75	1669.09
616.95	1679.33
617.15	1722.34
617.34	1609.70
617.54	1748.97
617.74	1888.23
617.93	1849.32
618.13	1581.03
618.32	1656.81
618.52	1611.75
618.72	1726.44
618.91	1693.67
619.11	1724.39
619.31	1705.96
619.50	1583.08
619.70	1740.77
619.90	1667.05
620.09	1691.62
620.29	1679.33
620.48	1802.21
620.68	1708.01
620.88	1691.62
621.07	1728.49
621.27	1728.49
621.46	1728.49
621.66	1771.49
621.86	1650.66
622.05	1675.24
622.25	1800.16
622.44	1642.47
622.64	1744.87
622.84	1662.95
623.03	1562.60
623.23	1644.52
623.42	1658.85
623.62	1744.87
623.82	1779.68
624.01	1712.10
624.21	1675.24
624.40	1767.40
624.60	1652.71
624.80	1654.76
624.99	1724.39
625.19	1671.14
625.38	1773.54
625.58	1708.01
625.77	1732.58
625.97	1767.40
626.17	1695.72
626.36	1714.15
626.56	1716.20
626.75	1642.47
626.95	1671.14
627.14	1767.40
627.34	1628.14
627.54	1744.87
627.73	1744.87
627.93	1769.44
628.12	1658.85
628.32	1689.57
628.51	1667.05
628.71	1728.49
628.90	1740.77
629.10	1642.47
629.30	1656.81
629.49	1789.92
629.69	1687.53
629.88	1679.33
630.08	1734.63
630.27	1910.75
630.47	1699.81
630.66	1611.75
630.86	1671.14
631.05	1626.09
631.25	1642.47
631.44	1832.93
631.64	1654.76
631.84	1617.90
632.03	1796.07
632.23	1679.33
632.42	1624.04
632.62	1628.14
632.81	1646.57
633.01	1773.54
633.20	1816.55
633.40	1841.12
633.59	1736.68
633.79	1685.48
633.98	1716.20
634.18	1712.10
634.37	1763.30
634.57	1699.81
634.76	1658.85
634.96	1753.06
635.15	1871.84
635.35	1746.92
635.54	1714.15
635.74	1728.49
635.93	1665.00
636.13	1669.09
636.32	1744.87
636.52	1695.72
636.71	1732.58
636.91	1781.73
637.10	1671.14
637.30	1685.48
637.49	1662.95
637.69	1779.68
637.88	1703.91
638.08	1761.25
638.27	1746.92
638.46	1662.95
638.66	1654.76
638.85	1646.57
639.05	1802.21
639.24	1794.02
639.44	1697.77
639.63	1716.20
639.83	1748.97
640.02	1689.57
640.22	1744.87
640.41	1656.81
640.61	1736.68
640.80	1667.05
640.99	1697.77
641.19	1724.39
641.38	1796.07
641.58	1753.06
641.77	1705.96
641.97	1568.74
642.16	1650.66
642.36	1810.40
642.55	1689.57
642.74	1724.39
642.94	1740.77
643.13	1634.28
643.33	1742.82
643.52	1730.53
643.72	1818.60
643.91	1675.24
644.10	1796.07
644.30	1630.18
644.49	1708.01
644.69	1722.34
644.88	1683.43
645.08	1748.97
645.27	1736.68
645.46	1609.70
645.66	1703.91
645.85	1710.05
646.05	1740.77
646.24	1673.19
646.43	1683.43
646.63	1705.96
646.82	1597.42
647.02	1751.01
647.21	1837.03
647.40	1681.38
647.60	1662.95
647.79	1748.97
647.99	1640.42
648.18	1716.20
648.37	1751.01
648.57	1699.81
648.76	1669.09
648.96	1705.96
649.15	1613.80
649.34	1773.54
649.54	1675.24
649.73	1617.90
649.92	1679.33
650.12	1714.15
650.31	1685.48
650.51	1853.41
650.70	1689.57
650.89	1691.62
651.09	1767.40
651.28	1794.02
651.47	1683.43
651.67	1679.33
651.86	1753.06
652.06	1683.43
652.25	1691.62
652.44	1570.79
652.64	1669.09
652.83	1720.29
653.02	1703.91
653.22	1693.67
653.41	1656.81
653.60	1699.81
653.80	1634.28
653.99	1761.25
654.18	1621.99
654.38	1644.52
654.57	1767.40
654.76	1632.23
654.96	1683.43
655.15	1642.47
655.34	1685.48
655.54	1699.81
655.73	1665.00
655.92	1679.33
656.12	1675.24
656.31	1722.34
656.50	1779.68
656.70	1720.29
656.89	1667.05
657.08	1621.99
657.28	1738.73
657.47	1662.95
657.66	1593.32
657.86	1646.57
658.05	1757.16
658.24	1738.73
658.43	1765.35
658.63	1607.66
658.82	1738.73
659.01	1753.06
659.21	1865.70
659.40	1691.62
659.59	1705.96
659.79	1632.23
659.98	1863.65
660.17	1689.57
660.36	1808.36
660.56	1742.82
660.75	1697.77
660.94	1681.38
661.14	1619.94
661.33	1679.33
661.52	1675.24
661.71	1712.10
661.91	1675.24
662.10	1724.39
662.29	1621.99
662.49	1642.47
662.68	1669.09
662.87	1630.18
663.06	1699.81
663.26	1617.90
663.45	1806.31
663.64	1691.62
663.83	1722.34
664.03	1734.63
664.22	1753.06
664.41	1877.99
664.60	1828.84
664.80	1619.94
664.99	1744.87
665.18	1841.12
665.37	1746.92
665.57	1822.69
665.76	1722.34
665.95	1746.92
666.14	1675.24
666.34	1654.76
666.53	1695.72
666.72	1632.23
666.91	1718.25
667.11	1705.96
667.30	1828.84
667.49	1732.58
667.68	1787.88
667.87	1728.49
668.07	1742.82
668.26	1675.24
668.45	1564.65
668.64	1683.43
668.84	1775.59
669.03	1734.63
669.22	1847.27
669.41	1732.58
669.60	1640.42
669.80	1701.86
669.99	1662.95
670.18	1652.71
670.37	1791.97
670.57	1751.01
670.76	1730.53
670.95	1853.41
671.14	1642.47
671.33	1671.14
671.53	1742.82
671.72	1763.30
671.91	1714.15
672.10	1675.24
672.29	1650.66
672.48	1574.89
672.68	1687.53
672.87	1662.95
673.06	1675.24
673.25	1699.81
673.44	1642.47
673.64	1626.09
673.83	1746.92
674.02	1718.25
674.21	1751.01
674.40	1677.29
674.59	1724.39
674.79	1669.09
674.98	1748.97
675.17	1791.97
675.36	1554.41
675.55	1708.01
675.74	1724.39
675.94	1716.20
676.13	1728.49
676.32	1687.53
676.51	1671.14
676.70	1630.18
676.89	1697.77
677.08	1677.29
677.28	1796.07
677.47	1658.85
677.66	1712.10
677.85	1628.14
678.04	1642.47
678.23	1773.54
678.42	1683.43
678.62	1710.05
678.81	1660.90
679.00	1697.77
679.19	1742.82
679.38	1798.12
679.57	1609.70
679.76	1695.72
679.96	1632.23
680.15	1810.40
680.34	1667.05
680.53	1755.11
680.72	1773.54
680.91	1742.82
681.10	1728.49
681.29	1572.84
681.48	1703.91
681.68	1658.85
681.87	1808.36
682.06	1705.96
682.25	1699.81
682.44	1656.81
682.63	1738.73
682.82	1509.35
683.01	1757.16
683.20	1718.25
683.39	1806.31
683.59	1671.14
683.78	1624.04
683.97	1609.70
684.16	1597.42
684.35	1662.95
684.54	1746.92
684.73	1667.05
684.92	1603.56
685.11	1796.07
685.30	1697.77
685.49	1654.76
685.69	1785.83
685.88	1662.95
686.07	1726.44
686.26	1695.72
686.45	1710.05
686.64	1718.25
686.83	1683.43
687.02	1687.53
687.21	1777.64
687.40	1617.90
687.59	1771.49
687.78	1726.44
687.97	1828.84
688.16	1652.71
688.35	1591.27
688.54	1679.33
688.74	1621.99
688.93	1687.53
689.12	1695.72
689.31	1810.40
689.50	1748.97
689.69	1646.57
689.88	1708.01
690.07	1685.48
690.26	1679.33
690.45	1595.37
690.64	1658.85
690.83	1665.00
691.02	1677.29
691.21	1587.18
691.40	1665.00
691.59	1679.33
691.78	1699.81
691.97	1638.38
692.16	1650.66
692.35	1708.01
692.54	1705.96
692.73	1669.09
692.92	1734.63
693.11	1605.61
693.30	1724.39
693.49	1671.14
693.68	1779.68
693.87	1701.86
694.06	1656.81
694.25	1695.72
694.44	1722.34
694.63	1656.81
694.82	1642.47
695.01	1726.44
695.20	1730.53
695.39	1697.77
695.58	1703.91
695.77	1615.85
695.96	1738.73
696.15	1652.71
696.34	1646.57
696.53	1617.90
696.72	1697.77
696.91	1642.47
697.10	1716.20
697.29	1699.81
697.48	1804.26
697.67	1677.29
697.86	1689.57
698.05	1654.76
698.24	1638.38
698.43	1701.86
698.62	1710.05
698.81	1630.18
699.00	1738.73
699.19	1675.24
699.38	1742.82
699.57	1585.13
699.76	1746.92
699.95	1587.18
700.14	1679.33
700.32	1773.54
700.51	1589.22
700.70	1691.62
700.89	1851.36
701.08	1740.77
701.27	1671.14
701.46	1746.92
701.65	1740.77
701.84	1562.60
702.03	1587.18
702.22	1736.68
702.41	1720.29
702.60	1708.01
702.79	1675.24
702.98	1708.01
703.17	1767.40
703.35	1701.86
703.54	1677.29
703.73	1687.53
703.92	1658.85
704.11	1609.70
704.30	1716.20
704.49	1644.52
704.68	1632.23
704.87	1609.70
705.06	1697.77
705.25	1632.23
705.43	1634.28
705.62	1636.33
705.81	1814.50
706.00	1675.24
706.19	1722.34
706.38	1601.51
706.57	1753.06
706.76	1667.05
706.95	1712.10
707.14	1720.29
707.32	1656.81
707.51	1548.26
707.70	1605.61
707.89	1724.39
708.08	1642.47
708.27	1644.52
708.46	1742.82
708.65	1585.13
708.84	1748.97
709.02	1732.58
709.21	1613.80
709.40	1636.33
709.59	1771.49
709.78	1683.43
709.97	1662.95
710.16	1718.25
710.34	1687.53
710.53	1740.77
710.72	1681.38
710.91	1765.35
711.10	1626.09
711.29	1628.14
711.48	1695.72
711.66	1728.49
711.85	1695.72
712.04	1769.44
712.23	1693.67
712.42	1728.49
712.61	1665.00
712.80	1621.99
712.98	1667.05
713.17	1652.71
713.36	1708.01
713.55	1761.25
713.74	1648.61
713.93	1759.21
714.11	1705.96
714.30	1568.74
714.49	1730.53
714.68	1619.94
714.87	1597.42
715.06	1740.77
715.24	1722.34
715.43	1685.48
715.62	1628.14
715.81	1619.94
716.00	1724.39
716.18	1732.58
716.37	1787.88
716.56	1650.66
716.75	1671.14
716.94	1640.42
717.12	1648.61
717.31	1658.85
717.50	1695.72
717.69	1648.61
717.88	1736.68
718.06	1736.68
718.25	1722.34
718.44	1609.70
718.63	1769.44
718.82	1644.52
719.00	1669.09
719.19	1888.23
719.38	1630.18
719.57	1652.71
719.76	1689.57
719.94	1746.92
720.13	1710.05
720.32	1748.97
720.51	1630.18
720.69	1712.10
720.88	1730.53
721.07	1724.39
721.26	1781.73
721.44	1660.90
721.63	1779.68
721.82	1679.33
722.01	1712.10
722.20	1722.34
722.38	1691.62
722.57	1583.08
722.76	1685.48
722.95	1611.75
723.13	1669.09
723.32	1763.30
723.51	1818.60
723.70	1665.00
723.88	1728.49
724.07	1617.90
724.26	1824.74
724.44	1687.53
724.63	1722.34
724.82	1662.95
725.01	1591.27
725.19	1697.77
725.38	1691.62
725.57	1660.90
725.76	1730.53
725.94	1687.53
726.13	1667.05
726.32	1630.18
726.51	1640.42
726.69	1662.95
726.88	1765.35
727.07	1646.57
727.25	1642.47
727.44	1673.19
727.63	1710.05
727.82	1675.24
728.00	1626.09
728.19	1656.81
728.38	1656.81
728.56	1550.31
728.75	1708.01
728.94	1722.34
729.12	1730.53
729.31	1720.29
729.50	1699.81
729.69	1773.54
729.87	1712.10
730.06	1695.72
730.25	1619.94
730.43	1738.73
730.62	1646.57
730.81	1685.48
730.99	1712.10
731.18	1656.81
731.37	1691.62
731.55	1679.33
731.74	1771.49
731.93	1703.91
732.11	1687.53
732.30	1587.18
732.49	1722.34
732.67	1656.81
732.86	1568.74
733.05	1658.85
733.23	1687.53
733.42	1667.05
733.61	1687.53
733.79	1751.01
733.98	1712.10
734.17	1609.70
734.35	1763.30
734.54	1722.34
734.73	1691.62
734.91	1554.41
735.10	1728.49
735.29	1671.14
735.47	1552.36
735.66	1621.99
735.84	1785.83
736.03	1679.33
736.22	1654.76
736.40	1667.05
736.59	1544.17
736.78	1628.14
736.96	1656.81
737.15	1710.05
737.33	1658.85
737.52	1751.01
737.71	1716.20
737.89	1662.95
738.08	1736.68
738.27	1785.83
738.45	1751.01
738.64	1667.05
738.82	1679.33
739.01	1705.96
739.20	1724.39
739.38	1773.54
739.57	1728.49
739.75	1689.57
739.94	1730.53
740.13	1558.50
740.31	1712.10
740.50	1662.95
740.68	1632.23
740.87	1632.23
741.06	1769.44
741.24	1820.64
741.43	1603.56
741.61	1728.49
741.80	1626.09
741.99	1685.48
742.17	1701.86
742.36	1597.42
742.54	1632.23
742.73	1755.11
742.91	1699.81
743.10	1679.33
743.29	1722.34
743.47	1693.67
743.66	1552.36
743.84	1675.24
744.03	1658.85
744.21	1697.77
744.40	1650.66
744.59	1665.00
744.77	1628.14
744.96	1736.68
745.14	1740.77
745.33	1683.43
745.51	1695.72
745.70	1718.25
745.88	1730.53
746.07	1621.99
746.26	1744.87
746.44	1601.51
746.63	1570.79
746.81	1691.62
747.00	1701.86
747.18	1626.09
747.37	1624.04
747.55	1738.73
747.74	1953.76
747.92	1757.16
748.11	1708.01
748.29	1638.38
748.48	1742.82
748.66	1652.71
748.85	1593.32
749.03	1712.10
749.22	1640.42
749.41	1636.33
749.59	1757.16
749.78	1699.81
749.96	1585.13
750.15	1593.32
750.33	1697.77
750.52	1687.53
750.70	1685.48
750.89	1705.96
751.07	1646.57
751.26	1628.14
751.44	1675.24
751.63	1699.81
751.81	1636.33
752.00	1611.75
752.18	1757.16
752.37	1683.43
752.55	1595.37
752.74	1673.19
752.92	1665.00
753.10	1634.28
753.29	1744.87
753.47	1644.52
753.66	1599.46
753.84	1683.43
754.03	1601.51
754.21	1728.49
754.40	1665.00
754.58	1708.01
754.77	1689.57
754.95	1726.44
755.14	1677.29
755.32	1691.62
755.51	1581.03
755.69	1656.81
755.88	1658.85
756.06	1746.92
756.24	1650.66
756.43	1677.29
756.61	1736.68
756.80	1585.13
756.98	1601.51
757.17	1652.71
757.35	1562.60
757.54	1683.43
757.72	1652.71
757.90	1669.09
758.09	1673.19
758.27	1613.80
758.46	1654.76
758.64	1705.96
758.83	1634.28
759.01	1718.25
759.19	1736.68
759.38	1665.00
759.56	1726.44
759.75	1687.53
759.93	1687.53
760.12	1662.95
760.30	1689.57
760.48	1677.29
760.67	1652.71
760.85	1634.28
761.04	1734.63
761.22	1673.19
761.40	1714.15
761.59	1617.90
761.77	1650.66
761.96	1748.97
762.14	1689.57
762.32	1708.01
762.51	1699.81
762.69	1662.95
762.88	1693.67
763.06	1632.23
763.24	1581.03
763.43	1667.05
763.61	1673.19
763.80	1681.38
763.98	1679.33
764.16	1665.00
764.35	1599.46
764.53	1650.66
764.72	1677.29
764.90	1714.15
765.08	1708.01
765.27	1722.34
765.45	1570.79
765.63	1638.38
765.82	1607.66
766.00	1662.95
766.18	1730.53
766.37	1693.67
766.55	1644.52
766.74	1703.91
766.92	1576.94
767.10	1695.72
767.29	1712.10
767.47	1648.61
767.65	1613.80
767.84	1685.48
768.02	1726.44
768.20	1665.00
768.39	1652.71
768.57	1660.90
768.75	1656.81
768.94	1732.58
769.12	1527.78
769.30	1665.00
769.49	1712.10
769.67	1728.49
769.85	1871.84
770.04	1665.00
770.22	1652.71
770.40	1712.10
770.59	1726.44
770.77	1710.05
770.95	1722.34
771.14	1671.14
771.32	1589.22
771.50	1624.04
771.69	1572.84
771.87	1679.33
772.05	1652.71
772.24	1630.18
772.42	1673.19
772.60	1718.25
772.78	1675.24
772.97	1492.97
773.15	1669.09
773.33	1708.01
773.52	1636.33
773.70	1646.57
773.88	1626.09
774.07	1593.32
774.25	1585.13
774.43	1656.81
774.61	1683.43
774.80	1683.43
774.98	1644.52
775.16	1646.57
775.34	1669.09
775.53	1730.53
775.71	1626.09
775.89	1613.80
776.08	1712.10
776.26	1648.61
776.44	1693.67
776.62	1646.57
776.81	1617.90
776.99	1710.05
777.17	1703.91
777.35	1699.81
777.54	1671.14
777.72	1681.38
777.90	1654.76
778.08	1650.66
778.27	1687.53
778.45	1578.98
778.63	1652.71
778.81	1720.29
779.00	1669.09
779.18	1685.48
779.36	1763.30
779.54	1665.00
779.73	1615.85
779.91	1667.05
780.09	1624.04
780.27	1662.95
780.46	1634.28
780.64	1617.90
780.82	1615.85
781.00	1638.38
781.19	1599.46
781.37	1683.43
781.55	1740.77
781.73	1683.43
781.91	1609.70
782.10	1665.00
782.28	1681.38
782.46	1691.62
782.64	1710.05
782.82	1691.62
783.01	1642.47
783.19	1671.14
783.37	1712.10
783.55	1626.09
783.74	1662.95
783.92	1650.66
784.10	1708.01
784.28	1671.14
784.46	1669.09
784.64	1515.50
784.83	1781.73
785.01	1740.77
785.19	1730.53
785.37	1697.77
785.55	1538.02
785.74	1675.24
785.92	1689.57
786.10	1701.86
786.28	1712.10
786.46	1710.05
786.64	1634.28
786.83	1566.70
787.01	1689.57
787.19	1798.12
787.37	1669.09
787.55	1710.05
787.74	1574.89
787.92	1720.29
788.10	1646.57
788.28	1679.33
788.46	1638.38
788.64	1720.29
788.82	1726.44
789.01	1550.31
789.19	1703.91
789.37	1701.86
789.55	1685.48
789.73	1603.56
789.91	1599.46
790.09	1718.25
790.28	1744.87
790.46	1529.83
790.64	1667.05
790.82	1640.42
791.00	1607.66
791.18	1687.53
791.36	1771.49
791.55	1720.29
791.73	1648.61
791.91	1615.85
792.09	1626.09
792.27	1507.30
792.45	1658.85
792.63	1748.97
792.81	1632.23
793.00	1689.57
793.18	1574.89
793.36	1703.91
793.54	1740.77
793.72	1640.42
793.90	1685.48
794.08	1556.46
794.26	1716.20
794.44	1476.59
794.62	1593.32
794.81	1566.70
794.99	1726.44
795.17	1660.90
795.35	1642.47
795.53	1703.91
795.71	1689.57
795.89	1683.43
796.07	1681.38
796.25	1689.57
796.43	1738.73
796.61	1669.09
796.80	1642.47
796.98	1665.00
797.16	1689.57
797.34	1667.05
797.52	1609.70
797.70	1740.77
797.88	1722.34
798.06	1613.80
798.24	1699.81
798.42	1656.81
798.60	1708.01
798.78	1675.24
798.96	1785.83
799.14	1683.43
799.32	1751.01
799.51	1650.66
799.69	1734.63
799.87	1701.86
800.05	1728.49
800.23	1542.12
800.41	1646.57
800.59	1609.70
800.77	1646.57
800.95	1488.87
801.13	1679.33
801.31	1646.57
801.49	1744.87
801.67	1699.81
801.85	1640.42
802.03	1652.71
802.21	1724.39
802.39	1552.36
802.57	1650.66
802.75	1697.77
802.93	1669.09
803.11	1617.90
803.29	1673.19
803.47	1654.76
803.65	1619.94
803.83	1599.46
804.01	1630.18
804.19	1605.61
804.37	1675.24
804.55	1630.18
804.73	1640.42
804.91	1607.66
805.09	1763.30
805.27	1705.96
805.45	1691.62
805.63	1689.57
805.81	1726.44
805.99	1673.19
806.17	1662.95
806.35	1597.42
806.53	1650.66
806.71	1681.38
806.89	1673.19
807.07	1732.58
807.25	1679.33
807.43	1611.75
807.61	1757.16
807.79	1662.95
807.97	1683.43
808.15	1689.57
808.33	1693.67
808.51	1791.97
808.69	1732.58
808.87	1642.47
809.05	1591.27
809.23	1556.46
809.41	1632.23
809.59	1564.65
809.77	1804.26
809.95	1591.27
810.13	1716.20
810.31	1712.10
810.49	1673.19
810.67	1605.61
810.84	1593.32
811.02	1679.33
811.20	1578.98
811.38	1832.93
811.56	1509.35
811.74	1699.81
811.92	1585.13
812.10	1681.38
812.28	1736.68
812.46	1652.71
812.64	1648.61
812.82	1572.84
813.00	1687.53
813.18	1662.95
813.36	1724.39
813.53	1724.39
813.71	1730.53
813.89	1658.85
814.07	1585.13
814.25	1718.25
814.43	1615.85
814.61	1617.90
814.79	1677.29
814.97	1683.43
815.15	1677.29
815.33	1607.66
815.50	1558.50
815.68	1562.60
815.86	1687.53
816.04	1714.15
816.22	1591.27
816.40	1689.57
816.58	1693.67
816.76	1585.13
816.94	1673.19
817.11	1613.80
817.29	1695.72
817.47	1634.28
817.65	1583.08
817.83	1697.77
818.01	1662.95
818.19	1548.26
818.37	1701.86
818.54	1722.34
818.72	1769.44
818.90	1753.06
819.08	1654.76
819.26	1689.57
819.44	1701.86
819.62	1665.00
819.80	1554.41
819.97	1736.68
820.15	1650.66
820.33	1636.33
820.51	1552.36
820.69	1650.66
820.87	1714.15
821.05	1660.90
821.22	1624.04
821.40	1621.99
821.58	1689.57
821.76	1642.47
821.94	1603.56
822.12	1695.72
822.29	1675.24
822.47	1609.70
822.65	1644.52
822.83	1607.66
823.01	1662.95
823.19	1656.81
823.36	1597.42
823.54	1595.37
823.72	1687.53
823.90	1644.52
824.08	1667.05
824.25	1662.95
824.43	1691.62
824.61	1591.27
824.79	1658.85
824.97	1630.18
825.15	1650.66
825.32	1626.09
825.50	1757.16
825.68	1632.23
825.86	1675.24
826.04	1681.38
826.21	1716.20
826.39	1628.14
826.57	1712.10
826.75	1724.39
826.93	1609.70
827.10	1781.73
827.28	1570.79
827.46	1679.33
827.64	1669.09
827.81	1658.85
827.99	1607.66
828.17	1624.04
828.35	1632.23
828.53	1716.20
828.70	1675.24
828.88	1615.85
829.06	1613.80
829.24	1621.99
829.41	1691.62
829.59	1734.63
829.77	1611.75
829.95	1677.29
830.12	1609.70
830.30	1564.65
830.48	1613.80
830.66	1585.13
830.84	1738.73
831.01	1742.82
831.19	1589.22
831.37	1718.25
831.55	1638.38
831.72	1681.38
831.90	1642.47
832.08	1722.34
832.25	1689.57
832.43	1757.16
832.61	1820.64
832.79	1474.54
832.96	1701.86
833.14	1724.39
833.32	1740.77
833.50	1556.46
833.67	1691.62
833.85	1581.03
834.03	1560.55
834.20	1640.42
834.38	1697.77
834.56	1748.97
834.74	1581.03
834.91	1673.19
835.09	1687.53
835.27	1673.19
835.44	1699.81
835.62	1554.41
835.80	1640.42
835.98	1607.66
836.15	1763.30
836.33	1636.33
836.51	1572.84
836.68	1570.79
836.86	1615.85
837.04	1646.57
837.21	1769.44
837.39	1660.90
837.57	1734.63
837.75	1658.85
837.92	1638.38
838.10	1638.38
838.28	1624.04
838.45	1656.81
838.63	1593.32
838.81	1708.01
838.98	1587.18
839.16	1634.28
839.34	1621.99
839.51	1605.61
839.69	1591.27
839.87	1621.99
840.04	1652.71
840.22	1816.55
840.40	1691.62
840.57	1607.66
840.75	1619.94
840.93	1599.46
841.10	1658.85
841.28	1701.86
841.46	1642.47
841.63	1716.20
841.81	1519.59
841.98	1597.42
842.16	1773.54
842.34	1597.42
842.51	1554.41
842.69	1656.81
842.87	1615.85
843.04	1640.42
843.22	1560.55
843.40	1564.65
843.57	1605.61
843.75	1581.03
843.92	1744.87
844.10	1634.28
844.28	1660.90
844.45	1597.42
844.63	1697.77
844.81	1701.86
844.98	1800.16
845.16	1619.94
845.33	1648.61
845.51	1644.52
845.69	1732.58
845.86	1730.53
846.04	1597.42
846.21	1630.18
846.39	1626.09
846.57	1576.94
846.74	1568.74
846.92	1660.90
847.09	1660.90
847.27	1619.94
847.45	1687.53
847.62	1703.91
847.80	1624.04
847.97	1609.70
848.15	1654.76
848.32	1634.28
848.50	1597.42
848.68	1640.42
848.85	1658.85
849.03	1517.54
849.20	1601.51
849.38	1591.27
849.56	1681.38
849.73	1587.18
849.91	1675.24
850.08	1691.62
850.26	1562.60
850.43	1634.28
850.61	1699.81
850.78	1550.31
850.96	1599.46
851.14	1527.78
851.31	1826.79
851.49	1658.85
851.66	1654.76
851.84	1511.40
852.01	1650.66
852.19	1599.46
852.36	1605.61
852.54	1654.76
852.71	1628.14
852.89	1609.70
853.07	1662.95
853.24	1628.14
853.42	1642.47
853.59	1660.90
853.77	1642.47
853.94	1720.29
854.12	1847.27
854.29	1525.74
854.47	1593.32
854.64	1650.66
854.82	1716.20
854.99	1646.57
855.17	1609.70
855.34	1566.70
855.52	1728.49
855.69	1812.45
855.87	1642.47
856.04	1624.04
856.22	1712.10
856.39	1523.69
856.57	1699.81
856.74	1595.37
856.92	1753.06
857.09	1691.62
857.27	1634.28
857.44	1611.75
857.62	1755.11
857.79	1619.94
857.97	1681.38
858.14	1648.61
858.32	1632.23
858.49	1632.23
858.67	1619.94
858.84	1574.89
859.02	1730.53
859.19	1626.09
859.37	1523.69
859.54	1617.90
859.72	1658.85
859.89	1591.27
860.06	1503.21
860.24	1624.04
860.41	1732.58
860.59	1523.69
860.76	1589.22
860.94	1566.70
861.11	1671.14
861.29	1601.51
861.46	1570.79
861.64	1634.28
861.81	1695.72
861.98	1511.40
862.16	1662.95
862.33	1585.13
862.51	1593.32
862.68	1617.90
862.86	1550.31
863.03	1642.47
863.21	1630.18
863.38	1587.18
863.55	1521.64
863.73	1699.81
863.90	1662.95
864.08	1689.57
864.25	1658.85
864.43	1699.81
864.60	1597.42
864.77	1576.94
864.95	1714.15
865.12	1529.83
865.30	1746.92
865.47	1665.00
865.64	1589.22
865.82	1691.62
865.99	1621.99
866.17	1685.48
866.34	1689.57
866.51	1517.54
866.69	1599.46
866.86	1683.43
867.04	1667.05
867.21	1667.05
867.38	1597.42
867.56	1576.94
867.73	1621.99
867.91	1718.25
868.08	1572.84
868.25	1597.42
868.43	1650.66
868.60	1660.90
868.78	1605.61
868.95	1667.05
869.12	1615.85
869.30	1626.09
869.47	1675.24
869.64	1679.33
869.82	1617.90
869.99	1716.20
870.16	1714.15
870.34	1687.53
870.51	1728.49
870.69	1626.09
870.86	1644.52
871.03	1605.61
871.21	1527.78
871.38	1687.53
871.55	1683.43
871.73	1640.42
871.90	1601.51
872.07	1531.88
872.25	1564.65
872.42	1568.74
872.59	1542.12
872.77	1679.33
872.94	1634.28
873.11	1636.33
873.29	1705.96
873.46	1654.76
873.63	1609.70
873.81	1658.85
873.98	1673.19
874.15	1540.07
874.33	1601.51
874.50	1699.81
874.67	1687.53
874.85	1626.09
875.02	1642.47
875.19	1603.56
875.37	1552.36
875.54	1513.45
875.71	1763.30
875.88	1722.34
876.06	1613.80
876.23	1650.66
876.40	1699.81
876.58	1665.00
876.75	1675.24
876.92	1642.47
877.10	1730.53
877.27	1636.33
877.44	1658.85
877.61	1599.46
877.79	1746.92
877.96	1705.96
878.13	1683.43
878.31	1615.85
878.48	1683.43
878.65	1626.09
878.82	1609.70
879.00	1593.32
879.17	1591.27
879.34	1636.33
879.51	1626.09
879.69	1656.81
879.86	1589.22
880.03	1560.55
880.21	1638.38
880.38	1597.42
880.55	1714.15
880.72	1695.72
880.90	1548.26
881.07	1521.64
881.24	1656.81
881.41	1613.80
881.59	1669.09
881.76	1603.56
881.93	1732.58
882.10	1679.33
882.28	1593.32
882.45	1714.15
882.62	1658.85
882.79	1626.09
882.96	1599.46
883.14	1597.42
883.31	1658.85
883.48	1546.22
883.65	1576.94
883.83	1540.07
884.00	1628.14
884.17	1675.24
884.34	1689.57
884.51	1695.72
884.69	1626.09
884.86	1607.66
885.03	1654.76
885.20	1609.70
885.38	1665.00
885.55	1730.53
885.72	1681.38
885.89	1630.18
886.06	1671.14
886.24	1593.32
886.41	1566.70
886.58	1691.62
886.75	1669.09
886.92	1656.81
887.10	1603.56
887.27	1601.51
887.44	1728.49
887.61	1755.11
887.78	1609.70
887.95	1662.95
888.13	1634.28
888.30	1654.76
888.47	1585.13
888.64	1683.43
888.81	1732.58
888.99	1564.65
889.16	1654.76
889.33	1652.71
889.50	1617.90
889.67	1638.38
889.84	1601.51
890.01	1734.63
890.19	1689.57
890.36	1650.66
890.53	1613.80
890.70	1552.36
890.87	1701.86
891.04	1566.70
891.22	1650.66
891.39	1484.78
891.56	1671.14
891.73	1697.77
891.90	1554.41
892.07	1581.03
892.24	1699.81
892.42	1593.32
892.59	1615.85
892.76	1683.43
892.93	1605.61
893.10	1675.24
893.27	1759.21
893.44	1564.65
893.61	1628.14
893.79	1644.52
893.96	1552.36
894.13	1671.14
894.30	1671.14
894.47	1804.26
894.64	1708.01
894.81	1570.79
894.98	1611.75
895.15	1642.47
895.33	1630.18
895.50	1490.92
895.67	1585.13
895.84	1665.00
896.01	1662.95
896.18	1572.84
896.35	1773.54
896.52	1712.10
896.69	1601.51
896.86	1671.14
897.04	1662.95
897.21	1650.66
897.38	1640.42
897.55	1679.33
897.72	1683.43
897.89	1642.47
898.06	1720.29
898.23	1544.17
898.40	1667.05
898.57	1562.60
898.74	1658.85
898.91	1589.22
899.08	1609.70
899.26	1613.80
899.43	1714.15
899.60	1609.70
899.77	1714.15
899.94	1589.22
900.11	1626.09
900.28	1591.27
900.45	1624.04
900.62	1617.90
900.79	1632.23
900.96	1601.51
901.13	1675.24
901.30	1615.85
901.47	1531.88
901.64	1576.94
901.81	1744.87
901.98	1570.79
902.15	1683.43
902.32	1599.46
902.49	1589.22
902.66	1710.05
902.83	1697.77
903.01	1535.98
903.18	1607.66
903.35	1605.61
903.52	1578.98
903.69	1689.57
903.86	1679.33
904.03	1673.19
904.20	1667.05
904.37	1654.76
904.54	1552.36
904.71	1642.47
904.88	1656.81
905.05	1564.65
905.22	1576.94
905.39	1572.84
905.56	1581.03
905.73	1566.70
905.90	1669.09
906.07	1605.61
906.24	1697.77
906.41	1585.13
906.58	1695.72
906.75	1613.80
906.92	1597.42
907.09	1585.13
907.26	1685.48
907.43	1562.60
907.60	1605.61
907.77	1583.08
907.93	1689.57
908.10	1652.71
908.27	1656.81
908.44	1597.42
908.61	1581.03
908.78	1638.38
908.95	1705.96
909.12	1626.09
909.29	1548.26
909.46	1658.85
909.63	1642.47
909.80	1634.28
909.97	1677.29
910.14	1679.33
910.31	1515.50
910.48	1615.85
910.65	1611.75
910.82	1599.46
910.99	1624.04
911.16	1556.46
911.33	1632.23
911.50	1566.70
911.66	1681.38
911.83	1667.05
912.00	1621.99
912.17	1542.12
912.34	1560.55
912.51	1712.10
912.68	1611.75
912.85	1658.85
913.02	1640.42
913.19	1656.81
913.36	1673.19
913.53	1679.33
913.70	1730.53
913.86	1701.86
914.03	1632.23
914.20	1648.61
914.37	1634.28
914.54	1562.60
914.71	1718.25
914.88	1677.29
915.05	1605.61
915.22	1603.56
915.39	1683.43
915.55	1562.60
915.72	1572.84
915.89	1599.46
916.06	1648.61
916.23	1589.22
916.40	1648.61
916.57	1593.32
916.74	1734.63
916.91	1601.51
917.07	1517.54
917.24	1601.51
917.41	1644.52
917.58	1679.33
917.75	1576.94
917.92	1533.93
918.09	1581.03
918.26	1626.09
918.42	1519.59
918.59	1695.72
918.76	1617.90
918.93	1587.18
919.10	1578.98
919.27	1611.75
919.44	1763.30
919.60	1630.18
919.77	1648.61
919.94	1632.23
920.11	1679.33
920.28	1634.28
920.45	1621.99
920.61	1529.83
920.78	1630.18
920.95	1734.63
921.12	1632.23
921.29	1572.84
921.46	1611.75
921.62	1552.36
921.79	1712.10
921.96	1658.85
922.13	1619.94
922.30	1624.04
922.47	1581.03
922.63	1603.56
922.80	1646.57
922.97	1581.03
923.14	1546.22
923.31	1677.29
923.47	1595.37
923.64	1677.29
923.81	1599.46
923.98	1677.29
924.15	1603.56
924.32	1656.81
924.48	1728.49
924.65	1665.00
924.82	1556.46
924.99	1583.08
925.15	1554.41
925.32	1716.20
925.49	1640.42
925.66	1689.57
925.83	1630.18
925.99	1615.85
926.16	1699.81
926.33	1638.38
926.50	1521.64
926.67	1630.18
926.83	1574.89
927.00	1712.10
927.17	1667.05
927.34	1568.74
927.50	1681.38
927.67	1765.35
927.84	1640.42
928.01	1677.29
928.17	1617.90
928.34	1667.05
928.51	1621.99
928.68	1591.27
928.84	1642.47
929.01	1640.42
929.18	1566.70
929.35	1597.42
929.51	1558.50
929.68	1621.99
929.85	1591.27
930.02	1605.61
930.18	1587.18
930.35	1556.46
930.52	1593.32
930.69	1609.70
930.85	1665.00
931.02	1624.04
931.19	1669.09
931.36	1585.13
931.52	1650.66
931.69	1693.67
931.86	1656.81
932.02	1656.81
932.19	1677.29
932.36	1638.38
932.53	1675.24
932.69	1638.38
932.86	1765.35
933.03	1642.47
933.19	1624.04
933.36	1636.33
933.53	1730.53
933.70	1671.14
933.86	1675.24
934.03	1695.72
934.20	1619.94
934.36	1730.53
934.53	1630.18
934.70	1638.38
934.86	1654.76
935.03	1621.99
935.20	1593.32
935.36	1656.81
935.53	1597.42
935.70	1535.98
935.86	1685.48
936.03	1650.66
936.20	1501.16
936.36	1617.90
936.53	1679.33
936.70	1597.42
936.86	1714.15
937.03	1630.18
937.20	1593.32
937.36	1671.14
937.53	1570.79
937.70	1613.80
937.86	1589.22
938.03	1626.09
938.20	1777.64
938.36	1593.32
938.53	1697.77
938.70	1523.69
938.86	1671.14
939.03	1607.66
939.20	1581.03
939.36	1617.90
939.53	1626.09
939.70	1869.80
939.86	1691.62
940.03	1615.85
940.19	1564.65
940.36	1660.90
940.53	1667.05
940.69	1572.84
940.86	1716.20
941.03	1576.94
941.19	1576.94
941.36	1538.02
941.52	1628.14
941.69	1652.71
941.86	1724.39
942.02	1597.42
942.19	1677.29
942.35	1705.96
942.52	1576.94
942.69	1624.04
942.85	1615.85
943.02	1650.66
943.18	1650.66
943.35	1601.51
943.52	1595.37
943.68	1562.60
943.85	1720.29
944.01	1611.75
944.18	1632.23
944.35	1658.85
944.51	1662.95
944.68	1519.59
944.84	1650.66
945.01	1527.78
945.17	1665.00
945.34	1687.53
945.51	1662.95
945.67	1597.42
945.84	1544.17
946.00	1509.35
946.17	1574.89
946.33	1587.18
946.50	1656.81
946.67	1548.26
946.83	1578.98
947.00	1689.57
947.16	1632.23
947.33	1607.66
947.49	1581.03
947.66	1564.65
947.82	1644.52
947.99	1587.18
948.16	1665.00
948.32	1626.09
948.49	1658.85
948.65	1630.18
948.82	1589.22
948.98	1744.87
949.15	1583.08
949.31	1634.28
949.48	1687.53
949.64	1628.14
949.81	1636.33
949.97	1613.80
950.14	1669.09
950.30	1617.90
950.47	1615.85
950.63	1665.00
950.80	1630.18
950.96	1638.38
951.13	1611.75
951.30	1658.85
951.46	1646.57
951.63	1671.14
951.79	1599.46
951.96	1675.24
952.12	1634.28
952.29	1654.76
952.45	1581.03
952.62	1572.84
952.78	1640.42
952.94	1548.26
953.11	1581.03
953.27	1509.35
953.44	1716.20
953.60	1529.83
953.77	1675.24
953.93	1587.18
954.10	1638.38
954.26	1644.52
954.43	1589.22
954.59	1687.53
954.76	1703.91
954.92	1675.24
955.09	1728.49
955.25	1570.79
955.42	1527.78
955.58	1662.95
955.75	1578.98
955.91	1578.98
956.07	1640.42
956.24	1730.53
956.40	1654.76
956.57	1722.34
956.73	1572.84
956.90	1632.23
957.06	1558.50
957.23	1632.23
957.39	1576.94
957.56	1597.42
957.72	1495.02
957.88	1578.98
958.05	1708.01
958.21	1679.33
958.38	1601.51
958.54	1568.74
958.71	1705.96
958.87	1591.27
959.03	1546.22
959.20	1650.66
959.36	1562.60
959.53	1652.71
959.69	1574.89
959.85	1640.42
960.02	1558.50
960.18	1621.99
960.35	1597.42
960.51	1648.61
960.68	1583.08
960.84	1636.33
961.00	1566.70
961.17	1595.37
961.33	1638.38
961.50	1595.37
961.66	1644.52
961.82	1542.12
961.99	1601.51
962.15	1617.90
962.31	1548.26
962.48	1665.00
962.64	1667.05
962.81	1613.80
962.97	1607.66
963.13	1607.66
963.30	1648.61
963.46	1624.04
963.62	1552.36
963.79	1572.84
963.95	1552.36
964.12	1597.42
964.28	1656.81
964.44	1601.51
964.61	1689.57
964.77	1605.61
964.93	1722.34
965.10	1679.33
965.26	1581.03
965.42	1552.36
965.59	1617.90
965.75	1599.46
965.92	1570.79
966.08	1642.47
966.24	1669.09
966.41	1587.18
966.57	1667.05
966.73	1675.24
966.90	1730.53
967.06	1669.09
967.22	1648.61
967.39	1632.23
967.55	1593.32
967.71	1669.09
967.88	1621.99
968.04	1570.79
968.20	1634.28
968.37	1558.50
968.53	1630.18
968.69	1615.85
968.85	1595.37
969.02	1558.50
969.18	1769.44
969.34	1634.28
969.51	1716.20
969.67	1662.95
969.83	1599.46
970.00	1708.01
970.16	1697.77
970.32	1615.85
970.48	1802.21
970.65	1603.56
970.81	1587.18
970.97	1609.70
971.14	1511.40
971.30	1724.39
971.46	1621.99
971.63	1611.75
971.79	1665.00
971.95	1658.85
972.11	1542.12
972.28	1613.80
972.44	1638.38
972.60	1603.56
972.76	1572.84
972.93	1587.18
973.09	1648.61
973.25	1687.53
973.42	1583.08
973.58	1673.19
973.74	1609.70
973.90	1667.05
974.07	1632.23
974.23	1607.66
974.39	1632.23
974.55	1619.94
974.72	1593.32
974.88	1529.83
975.04	1658.85
975.20	1566.70
975.37	1683.43
975.53	1615.85
975.69	1662.95
975.85	1613.80
976.01	1601.51
976.18	1591.27
976.34	1607.66
976.50	1654.76
976.66	1730.53
976.83	1626.09
976.99	1634.28
977.15	1679.33
977.31	1525.74
977.47	1691.62
977.64	1656.81
977.80	1578.98
977.96	1615.85
978.12	1660.90
978.29	1630.18
978.45	1540.07
978.61	1570.79
978.77	1654.76
978.93	1556.46
979.10	1617.90
979.26	1607.66
979.42	1667.05
979.58	1505.26
979.74	1564.65
979.91	1656.81
980.07	1542.12
980.23	1695.72
980.39	1607.66
980.55	1585.13
980.71	1581.03
980.88	1581.03
981.04	1626.09
981.20	1605.61
981.36	1630.18
981.52	1626.09
981.68	1642.47
981.85	1617.90
982.01	1654.76
982.17	1519.59
982.33	1578.98
982.49	1634.28
982.65	1558.50
982.82	1648.61
982.98	1552.36
983.14	1581.03
983.30	1691.62
983.46	1624.04
983.62	1615.85
983.79	1601.51
983.95	1619.94
984.11	1482.73
984.27	1605.61
984.43	1662.95
984.59	1599.46
984.75	1634.28
984.91	1609.70
985.08	1646.57
985.24	1656.81
985.40	1560.55
985.56	1630.18
985.72	1624.04
985.88	1703.91
986.04	1583.08
986.20	1591.27
986.37	1644.52
986.53	1597.42
986.69	1695.72
986.85	1593.32
987.01	1591.27
987.17	1585.13
987.33	1568.74
987.49	1640.42
987.65	1650.66
987.82	1525.74
987.98	1564.65
988.14	1591.27
988.30	1636.33
988.46	1568.74
988.62	1554.41
988.78	1619.94
988.94	1687.53
989.10	1560.55
989.26	1576.94
989.42	1675.24
989.59	1581.03
989.75	1609.70
989.91	1665.00
990.07	1542.12
990.23	1609.70
990.39	1626.09
990.55	1695.72
990.71	1572.84
990.87	1621.99
991.03	1650.66
991.19	1617.90
991.35	1585.13
991.51	1695.72
991.67	1650.66
991.83	1609.70
992.00	1621.99
992.16	1660.90
992.32	1660.90
992.48	1626.09
992.64	1519.59
992.80	1640.42
992.96	1673.19
993.12	1621.99
993.28	1740.77
993.44	1636.33
993.60	1576.94
993.76	1593.32
993.92	1638.38
994.08	1703.91
994.24	1585.13
994.40	1634.28
994.56	1593.32
994.72	1619.94
994.88	1560.55
995.04	1585.13
995.20	1517.54
995.36	1650.66
995.52	1718.25
995.68	1613.80
995.84	1456.11
996.00	1701.86
996.16	1595.37
996.32	1599.46
996.48	1609.70
996.64	1662.95
996.80	1550.31
996.96	1665.00
997.12	1521.64
997.28	1574.89
997.44	1564.65
997.60	1570.79
997.76	1681.38
997.92	1615.85
998.08	1632.23
998.24	1544.17
998.40	1689.57
998.56	1689.57
998.72	1566.70
998.88	1556.46
999.04	1662.95
999.20	1689.57
999.36	1552.36
999.52	1691.62
999.68	1636.33
999.84	1662.95
1000.00	1652.71
1000.16	1736.68
1000.32	1564.65
1000.48	1732.58
1000.64	1568.74
1000.80	1558.50
1000.95	1519.59
1001.11	1568.74
1001.27	1527.78
1001.43	1609.70
1001.59	1503.21
1001.75	1538.02
1001.91	1691.62
1002.07	1566.70
1002.23	1632.23
1002.39	1662.95
1002.55	1642.47
1002.71	1585.13
1002.87	1568.74
1003.03	1619.94
1003.19	1531.88
1003.34	1689.57
1003.50	1564.65
1003.66	1667.05
1003.82	1681.38
1003.98	1558.50
1004.14	1636.33
1004.30	1597.42
1004.46	1574.89
1004.62	1527.78
1004.78	1613.80
1004.94	1701.86
1005.09	1642.47
1005.25	1621.99
1005.41	1550.31
1005.57	1593.32
1005.73	1562.60
1005.89	1570.79
1006.05	1576.94
1006.21	1624.04
1006.37	1597.42
1006.52	1603.56
1006.68	1476.59
1006.84	1751.01
1007.00	1548.26
1007.16	1581.03
1007.32	1630.18
1007.48	1589.22
1007.64	1591.27
1007.79	1613.80
1007.95	1527.78
1008.11	1693.67
1008.27	1574.89
1008.43	1658.85
1008.59	1576.94
1008.75	1660.90
1008.91	1628.14
1009.06	1576.94
1009.22	1564.65
1009.38	1648.61
1009.54	1613.80
1009.70	1538.02
1009.86	1538.02
1010.01	1617.90
1010.17	1593.32
1010.33	1714.15
1010.49	1667.05
1010.65	1673.19
1010.81	1529.83
1010.96	1617.90
1011.12	1552.36
1011.28	1574.89
1011.44	1658.85
1011.60	1578.98
1011.76	1609.70
1011.91	1667.05
1012.07	1492.97
1012.23	1574.89
1012.39	1605.61
1012.55	1599.46
1012.71	1599.46
1012.86	1597.42
1013.02	1601.51
1013.18	1636.33
1013.34	1632.23
1013.50	1667.05
1013.65	1589.22
1013.81	1572.84
1013.97	1558.50
1014.13	1558.50
1014.29	1611.75
1014.44	1730.53
1014.60	1609.70
1014.76	1658.85
1014.92	1593.32
1015.07	1556.46
1015.23	1552.36
1015.39	1523.69
1015.55	1605.61
1015.71	1613.80
1015.86	1646.57
1016.02	1538.02
1016.18	1548.26
1016.34	1611.75
1016.49	1603.56
1016.65	1714.15
1016.81	1560.55
1016.97	1609.70
1017.12	1701.86
1017.28	1558.50
1017.44	1574.89
1017.60	1599.46
1017.75	1601.51
1017.91	1581.03
1018.07	1615.85
1018.23	1628.14
1018.38	1552.36
1018.54	1574.89
1018.70	1523.69
1018.86	1632.23
1019.01	1613.80
1019.17	1552.36
1019.33	1679.33
1019.49	1624.04
1019.64	1591.27
1019.80	1609.70
1019.96	1624.04
1020.12	1642.47
1020.27	1626.09
1020.43	1593.32
1020.59	1658.85
1020.74	1574.89
1020.90	1683.43
1021.06	1525.74
1021.22	1576.94
1021.37	1648.61
1021.53	1521.64
1021.69	1581.03
1021.84	1597.42
1022.00	1583.08
1022.16	1570.79
1022.31	1650.66
1022.47	1591.27
1022.63	1636.33
1022.79	1548.26
1022.94	1554.41
1023.10	1685.48
1023.26	1562.60
1023.41	1665.00
1023.57	1613.80
1023.73	1572.84
1023.88	1601.51
1024.04	1523.69
1024.20	1607.66
1024.35	1613.80
1024.51	1597.42
1024.67	1660.90
1024.82	1581.03
1024.98	1552.36
1025.14	1689.57
1025.29	1634.28
1025.45	1648.61
1025.61	1523.69
1025.76	1574.89
1025.92	1632.23
1026.08	1642.47
1026.23	1613.80
1026.39	1667.05
1026.55	1597.42
1026.70	1613.80
1026.86	1662.95
1027.02	1593.32
1027.17	1654.76
1027.33	1648.61
1027.48	1599.46
1027.64	1568.74
1027.80	1660.90
1027.95	1681.38
1028.11	1476.59
1028.27	1677.29
1028.42	1687.53
1028.58	1630.18
1028.73	1607.66
1028.89	1624.04
1029.05	1654.76
1029.20	1638.38
>>>>>End Processed Spectral Data<<<<<
