SpectraSuite Data File
++++++++++++++++++++++++++++++++++++
Date: Fri Jun 02 14:53:27 CEST 2017
User: INFO_000
Dark Spectrum Present: No
Reference Spectrum Present: No
Number of Sampled Component Spectra: 1
Spectrometers: USB4H00879
Integration Time (usec): 80000 (USB4H00879)
Spectra Averaged: 1 (USB4H00879)
Boxcar Smoothing: 0 (USB4H00879)
Correct for Electrical Dark: No (USB4H00879)
Strobe/Lamp Enabled: No (USB4H00879)
Correct for Detector Non-linearity: No (USB4H00879)
Correct for Stray Light: No (USB4H00879)
Number of Pixels in Processed Spectrum: 3648
>>>>>Begin Processed Spectral Data<<<<<
345.13	1275.88
345.34	1275.88
345.56	1275.88
345.78	1314.80
345.99	1327.08
346.21	1712.10
346.42	1728.49
346.64	1660.90
346.86	1814.50
347.07	1617.90
347.29	1781.73
347.50	1675.24
347.72	1720.29
347.94	1769.44
348.15	1523.69
348.37	1562.60
348.59	1685.48
348.80	1644.52
349.02	1769.44
349.23	1767.40
349.45	1638.38
349.67	1779.68
349.88	1665.00
350.10	1884.13
350.31	1714.15
350.53	1697.77
350.75	1855.46
350.96	1683.43
351.18	1765.35
351.39	1654.76
351.61	1665.00
351.82	1728.49
352.04	1798.12
352.26	1609.70
352.47	1763.30
352.69	1761.25
352.90	1634.28
353.12	1738.73
353.34	1800.16
353.55	1783.78
353.77	1734.63
353.98	1714.15
354.20	1687.53
354.41	1755.11
354.63	1810.40
354.85	1910.75
355.06	1800.16
355.28	1689.57
355.49	1755.11
355.71	1734.63
355.92	1720.29
356.14	1732.58
356.35	1759.21
356.57	1613.80
356.79	1726.44
357.00	1669.09
357.22	1732.58
357.43	1630.18
357.65	1751.01
357.86	1609.70
358.08	1730.53
358.29	1699.81
358.51	1814.50
358.72	1769.44
358.94	1662.95
359.16	1775.59
359.37	1736.68
359.59	1765.35
359.80	1734.63
360.02	1699.81
360.23	1650.66
360.45	1787.88
360.66	1789.92
360.88	1665.00
361.09	1697.77
361.31	1708.01
361.52	1701.86
361.74	1798.12
361.95	1777.64
362.17	1755.11
362.38	1847.27
362.60	1656.81
362.81	1673.19
363.03	1654.76
363.24	1644.52
363.46	1748.97
363.67	1730.53
363.89	1710.05
364.10	1671.14
364.32	1695.72
364.53	1751.01
364.75	1626.09
364.96	1716.20
365.18	1660.90
365.39	1654.76
365.61	1673.19
365.82	1818.60
366.04	1697.77
366.25	1665.00
366.47	1765.35
366.68	1716.20
366.90	1638.38
367.11	1761.25
367.33	1808.36
367.54	1722.34
367.76	1683.43
367.97	1779.68
368.19	1685.48
368.40	1763.30
368.62	1658.85
368.83	1599.46
369.05	1755.11
369.26	1634.28
369.48	1683.43
369.69	1644.52
369.91	1783.78
370.12	1714.15
370.33	1806.31
370.55	1652.71
370.76	1683.43
370.98	1789.92
371.19	1675.24
371.41	1669.09
371.62	1650.66
371.84	1630.18
372.05	1765.35
372.27	1726.44
372.48	1712.10
372.69	1744.87
372.91	1714.15
373.12	1775.59
373.34	1669.09
373.55	1726.44
373.77	1744.87
373.98	1738.73
374.20	1789.92
374.41	1806.31
374.62	1701.86
374.84	1708.01
375.05	1718.25
375.27	1681.38
375.48	1748.97
375.70	1630.18
375.91	1759.21
376.12	1779.68
376.34	1679.33
376.55	1701.86
376.77	1765.35
376.98	1609.70
377.19	1720.29
377.41	1636.33
377.62	1679.33
377.84	1712.10
378.05	1814.50
378.27	1662.95
378.48	1873.89
378.69	1814.50
378.91	1738.73
379.12	1705.96
379.34	1740.77
379.55	1718.25
379.76	1679.33
379.98	1732.58
380.19	1724.39
380.41	1705.96
380.62	1753.06
380.83	1675.24
381.05	1636.33
381.26	1847.27
381.47	1705.96
381.69	1646.57
381.90	1828.84
382.12	1732.58
382.33	1730.53
382.54	1667.05
382.76	1726.44
382.97	1691.62
383.19	1583.08
383.40	1837.03
383.61	1650.66
383.83	1591.27
384.04	1650.66
384.25	1746.92
384.47	1751.01
384.68	1662.95
384.89	1628.14
385.11	1671.14
385.32	1650.66
385.54	1695.72
385.75	1673.19
385.96	1708.01
386.18	1679.33
386.39	1773.54
386.60	1630.18
386.82	1705.96
387.03	1724.39
387.24	1773.54
387.46	1757.16
387.67	1740.77
387.88	1800.16
388.10	1683.43
388.31	1679.33
388.52	1744.87
388.74	1712.10
388.95	1675.24
389.16	1708.01
389.38	1683.43
389.59	1781.73
389.80	1785.83
390.02	1744.87
390.23	1693.67
390.44	1685.48
390.66	1705.96
390.87	1734.63
391.08	1669.09
391.30	1808.36
391.51	1744.87
391.72	1730.53
391.94	1740.77
392.15	1675.24
392.36	1718.25
392.58	1648.61
392.79	1708.01
393.00	1689.57
393.22	1794.02
393.43	1734.63
393.64	1798.12
393.85	1718.25
394.07	1693.67
394.28	1691.62
394.49	1667.05
394.71	1765.35
394.92	1738.73
395.13	1724.39
395.35	1681.38
395.56	1718.25
395.77	1757.16
395.98	1681.38
396.20	1693.67
396.41	1697.77
396.62	1785.83
396.84	1710.05
397.05	1640.42
397.26	1685.48
397.47	1767.40
397.69	1691.62
397.90	1855.46
398.11	1660.90
398.32	1654.76
398.54	1675.24
398.75	1705.96
398.96	1728.49
399.18	1851.36
399.39	1757.16
399.60	1693.67
399.81	1691.62
400.03	1640.42
400.24	1961.95
400.45	1687.53
400.66	1687.53
400.88	1693.67
401.09	1908.71
401.30	1681.38
401.51	1843.17
401.73	1763.30
401.94	1761.25
402.15	1656.81
402.36	1687.53
402.58	1767.40
402.79	1730.53
403.00	1720.29
403.21	1800.16
403.43	1798.12
403.64	1804.26
403.85	1636.33
404.06	1804.26
404.27	1681.38
404.49	1673.19
404.70	1669.09
404.91	1824.74
405.12	1728.49
405.34	1726.44
405.55	1810.40
405.76	1628.14
405.97	1730.53
406.19	1744.87
406.40	1636.33
406.61	1716.20
406.82	1722.34
407.03	1720.29
407.25	1705.96
407.46	1724.39
407.67	1736.68
407.88	1841.12
408.09	1744.87
408.31	1691.62
408.52	1771.49
408.73	1718.25
408.94	1667.05
409.15	1736.68
409.37	1759.21
409.58	1736.68
409.79	1667.05
410.00	1748.97
410.21	1730.53
410.43	1695.72
410.64	1673.19
410.85	1746.92
411.06	1675.24
411.27	1701.86
411.48	1791.97
411.70	1662.95
411.91	1714.15
412.12	1781.73
412.33	1773.54
412.54	1632.23
412.76	1689.57
412.97	1808.36
413.18	1714.15
413.39	1673.19
413.60	1726.44
413.81	1732.58
414.03	1644.52
414.24	1679.33
414.45	1843.17
414.66	1603.56
414.87	1748.97
415.08	1673.19
415.30	1812.45
415.51	1814.50
415.72	1621.99
415.93	1660.90
416.14	1746.92
416.35	1720.29
416.56	1808.36
416.78	1740.77
416.99	1673.19
417.20	1751.01
417.41	1746.92
417.62	1691.62
417.83	1744.87
418.04	1720.29
418.26	1781.73
418.47	1654.76
418.68	1703.91
418.89	1724.39
419.10	1869.80
419.31	1716.20
419.52	1781.73
419.73	1759.21
419.95	1722.34
420.16	1658.85
420.37	1656.81
420.58	1787.88
420.79	1587.18
421.00	1716.20
421.21	1712.10
421.42	1665.00
421.63	1699.81
421.85	1691.62
422.06	1671.14
422.27	1755.11
422.48	1748.97
422.69	1724.39
422.90	1640.42
423.11	1621.99
423.32	1808.36
423.53	1802.21
423.75	1677.29
423.96	1746.92
424.17	1755.11
424.38	1869.80
424.59	1683.43
424.80	1722.34
425.01	1740.77
425.22	1595.37
425.43	1769.44
425.64	1765.35
425.85	1726.44
426.06	1843.17
426.28	1665.00
426.49	1685.48
426.70	1652.71
426.91	1658.85
427.12	1701.86
427.33	1650.66
427.54	1662.95
427.75	1687.53
427.96	1767.40
428.17	1718.25
428.38	1675.24
428.59	1751.01
428.80	1669.09
429.01	1677.29
429.23	1654.76
429.44	1728.49
429.65	1689.57
429.86	1761.25
430.07	1714.15
430.28	1660.90
430.49	1773.54
430.70	1796.07
430.91	1869.80
431.12	1675.24
431.33	1683.43
431.54	1787.88
431.75	1730.53
431.96	1708.01
432.17	1730.53
432.38	1794.02
432.59	1820.64
432.80	1880.04
433.01	1755.11
433.22	1728.49
433.43	1755.11
433.64	1736.68
433.85	1763.30
434.06	1769.44
434.27	1699.81
434.49	1656.81
434.70	1712.10
434.91	1757.16
435.12	1667.05
435.33	1697.77
435.54	1718.25
435.75	1675.24
435.96	1732.58
436.17	1673.19
436.38	1820.64
436.59	1705.96
436.80	1652.71
437.01	1789.92
437.22	1726.44
437.43	1691.62
437.64	1683.43
437.85	1685.48
438.06	1671.14
438.27	1654.76
438.48	1695.72
438.69	1773.54
438.90	1671.14
439.11	1708.01
439.32	1757.16
439.53	1642.47
439.74	1611.75
439.95	1642.47
440.16	1646.57
440.37	1665.00
440.57	1646.57
440.78	1736.68
440.99	1665.00
441.20	1732.58
441.41	1607.66
441.62	1636.33
441.83	1683.43
442.04	1609.70
442.25	1679.33
442.46	1599.46
442.67	1667.05
442.88	1894.37
443.09	1624.04
443.30	1648.61
443.51	1630.18
443.72	1722.34
443.93	1662.95
444.14	1742.82
444.35	1648.61
444.56	1722.34
444.77	1693.67
444.98	1806.31
445.19	1667.05
445.40	1748.97
445.61	1644.52
445.81	1648.61
446.02	1800.16
446.23	1765.35
446.44	1585.13
446.65	1681.38
446.86	1740.77
447.07	1816.55
447.28	1677.29
447.49	1636.33
447.70	1640.42
447.91	1767.40
448.12	1683.43
448.33	1662.95
448.54	1652.71
448.74	1660.90
448.95	1685.48
449.16	1703.91
449.37	1736.68
449.58	1722.34
449.79	1753.06
450.00	1695.72
450.21	1691.62
450.42	1761.25
450.63	1708.01
450.84	1681.38
451.05	1644.52
451.25	1650.66
451.46	1650.66
451.67	1834.98
451.88	1691.62
452.09	1697.77
452.30	1662.95
452.51	1619.94
452.72	1798.12
452.93	1814.50
453.13	1624.04
453.34	1558.50
453.55	1736.68
453.76	1710.05
453.97	1671.14
454.18	1630.18
454.39	1703.91
454.60	1601.51
454.81	1775.59
455.01	1751.01
455.22	1591.27
455.43	1660.90
455.64	1708.01
455.85	1765.35
456.06	1769.44
456.27	1832.93
456.48	1669.09
456.68	1738.73
456.89	1703.91
457.10	1710.05
457.31	1611.75
457.52	1789.92
457.73	1732.58
457.94	1687.53
458.14	1615.85
458.35	1716.20
458.56	1705.96
458.77	1714.15
458.98	1675.24
459.19	1718.25
459.39	1693.67
459.60	1744.87
459.81	1673.19
460.02	1736.68
460.23	1665.00
460.44	1705.96
460.65	1753.06
460.85	1761.25
461.06	1644.52
461.27	1751.01
461.48	1687.53
461.69	1662.95
461.89	1595.37
462.10	1656.81
462.31	1646.57
462.52	1581.03
462.73	1705.96
462.94	1630.18
463.14	1722.34
463.35	1617.90
463.56	1763.30
463.77	1705.96
463.98	1632.23
464.18	1681.38
464.39	1773.54
464.60	1783.78
464.81	1464.30
465.02	1767.40
465.23	1703.91
465.43	1683.43
465.64	1609.70
465.85	1638.38
466.06	1683.43
466.27	1689.57
466.47	1681.38
466.68	1769.44
466.89	1576.94
467.10	1568.74
467.30	1697.77
467.51	1730.53
467.72	1732.58
467.93	1583.08
468.14	1601.51
468.34	1720.29
468.55	1683.43
468.76	1753.06
468.97	1677.29
469.17	1804.26
469.38	1822.69
469.59	1732.58
469.80	1665.00
470.01	1675.24
470.21	1714.15
470.42	1675.24
470.63	1722.34
470.84	1804.26
471.04	1691.62
471.25	1748.97
471.46	1744.87
471.67	1802.21
471.87	1724.39
472.08	1765.35
472.29	1607.66
472.50	1732.58
472.70	1658.85
472.91	1632.23
473.12	1630.18
473.33	1687.53
473.53	1777.64
473.74	1673.19
473.95	1685.48
474.16	1609.70
474.36	1578.98
474.57	1759.21
474.78	1667.05
474.99	1796.07
475.19	1689.57
475.40	1691.62
475.61	1771.49
475.81	1697.77
476.02	1642.47
476.23	1712.10
476.44	1630.18
476.64	1681.38
476.85	1658.85
477.06	1714.15
477.27	1658.85
477.47	1736.68
477.68	1652.71
477.89	1683.43
478.09	1673.19
478.30	1722.34
478.51	1683.43
478.71	1578.98
478.92	1691.62
479.13	1697.77
479.34	1673.19
479.54	1716.20
479.75	1650.66
479.96	1701.86
480.16	1656.81
480.37	1658.85
480.58	1640.42
480.78	1789.92
480.99	1658.85
481.20	1699.81
481.41	1716.20
481.61	1775.59
481.82	1777.64
482.03	1671.14
482.23	1658.85
482.44	1714.15
482.65	1900.52
482.85	1736.68
483.06	1744.87
483.27	1675.24
483.47	1789.92
483.68	1634.28
483.89	1701.86
484.09	1716.20
484.30	1658.85
484.51	1759.21
484.71	1648.61
484.92	1716.20
485.13	1728.49
485.33	1671.14
485.54	1583.08
485.75	1748.97
485.95	1798.12
486.16	1632.23
486.37	1712.10
486.57	1650.66
486.78	1714.15
486.98	1730.53
487.19	1693.67
487.40	1753.06
487.60	1726.44
487.81	1720.29
488.02	1624.04
488.22	1710.05
488.43	1744.87
488.64	1660.90
488.84	1646.57
489.05	1695.72
489.25	1654.76
489.46	1716.20
489.67	1626.09
489.87	1789.92
490.08	1736.68
490.29	1599.46
490.49	1832.93
490.70	1748.97
490.90	1630.18
491.11	1716.20
491.32	1730.53
491.52	1642.47
491.73	1703.91
491.94	1748.97
492.14	1619.94
492.35	1730.53
492.55	1722.34
492.76	1636.33
492.97	1679.33
493.17	1718.25
493.38	1716.20
493.58	1783.78
493.79	1699.81
494.00	1648.61
494.20	1544.17
494.41	1736.68
494.61	1796.07
494.82	1619.94
495.02	1583.08
495.23	1818.60
495.44	1710.05
495.64	1650.66
495.85	1613.80
496.05	1769.44
496.26	1728.49
496.47	1685.48
496.67	1710.05
496.88	1695.72
497.08	1660.90
497.29	1638.38
497.49	1843.17
497.70	1699.81
497.91	1669.09
498.11	1791.97
498.32	1662.95
498.52	1738.73
498.73	1740.77
498.93	1751.01
499.14	1691.62
499.34	1728.49
499.55	1695.72
499.76	1699.81
499.96	1757.16
500.17	1705.96
500.37	1738.73
500.58	1683.43
500.78	1701.86
500.99	1646.57
501.19	1679.33
501.40	1796.07
501.60	1589.22
501.81	1767.40
502.02	1728.49
502.22	1669.09
502.43	1695.72
502.63	1888.23
502.84	1730.53
503.04	1650.66
503.25	1716.20
503.45	1687.53
503.66	1640.42
503.86	1794.02
504.07	1828.84
504.27	1613.80
504.48	1642.47
504.68	1771.49
504.89	1785.83
505.09	1634.28
505.30	1628.14
505.50	1728.49
505.71	1765.35
505.91	1779.68
506.12	1656.81
506.32	1724.39
506.53	1667.05
506.73	1714.15
506.94	1673.19
507.14	1716.20
507.35	1736.68
507.55	1697.77
507.76	1687.53
507.96	1703.91
508.17	1759.21
508.37	1640.42
508.58	1781.73
508.78	1757.16
508.99	1789.92
509.19	1740.77
509.40	1720.29
509.60	1689.57
509.81	1740.77
510.01	1644.52
510.22	1746.92
510.42	1691.62
510.63	1759.21
510.83	1728.49
511.04	1632.23
511.24	1806.31
511.44	1615.85
511.65	1632.23
511.85	1781.73
512.06	1677.29
512.26	1628.14
512.47	1822.69
512.67	1679.33
512.88	1699.81
513.08	1585.13
513.29	1773.54
513.49	1648.61
513.69	1667.05
513.90	1662.95
514.10	1808.36
514.31	1722.34
514.51	1755.11
514.72	1763.30
514.92	1675.24
515.13	1667.05
515.33	1658.85
515.53	1710.05
515.74	1728.49
515.94	1759.21
516.15	1757.16
516.35	1691.62
516.56	1593.32
516.76	1621.99
516.96	1730.53
517.17	1681.38
517.37	1701.86
517.58	1642.47
517.78	1685.48
517.99	1767.40
518.19	1787.88
518.39	1705.96
518.60	1738.73
518.80	1720.29
519.01	1751.01
519.21	1703.91
519.41	1740.77
519.62	1642.47
519.82	1712.10
520.03	1675.24
520.23	1634.28
520.43	1730.53
520.64	1751.01
520.84	1775.59
521.05	1683.43
521.25	1734.63
521.45	1675.24
521.66	1671.14
521.86	1714.15
522.07	1722.34
522.27	1697.77
522.47	1681.38
522.68	1710.05
522.88	1732.58
523.08	1791.97
523.29	1638.38
523.49	1667.05
523.70	1615.85
523.90	1687.53
524.10	1712.10
524.31	1601.51
524.51	1609.70
524.71	1722.34
524.92	1689.57
525.12	1607.66
525.33	1744.87
525.53	1658.85
525.73	1824.74
525.94	1677.29
526.14	1714.15
526.34	1619.94
526.55	1695.72
526.75	1681.38
526.95	1834.98
527.16	1650.66
527.36	1677.29
527.56	1755.11
527.77	1570.79
527.97	1732.58
528.17	1748.97
528.38	1757.16
528.58	1630.18
528.78	1740.77
528.99	1611.75
529.19	1716.20
529.39	1720.29
529.60	1671.14
529.80	1697.77
530.00	1650.66
530.21	1650.66
530.41	1652.71
530.61	1710.05
530.82	1687.53
531.02	1716.20
531.22	1789.92
531.43	1736.68
531.63	1669.09
531.83	1759.21
532.04	1736.68
532.24	1716.20
532.44	1636.33
532.64	1763.30
532.85	1650.66
533.05	1581.03
533.25	1591.27
533.46	1648.61
533.66	1753.06
533.86	1630.18
534.07	1691.62
534.27	1654.76
534.47	1693.67
534.67	1716.20
534.88	1673.19
535.08	1695.72
535.28	1738.73
535.49	1634.28
535.69	1765.35
535.89	1814.50
536.09	1763.30
536.30	1699.81
536.50	1673.19
536.70	1732.58
536.91	1564.65
537.11	1720.29
537.31	1724.39
537.51	1720.29
537.72	1738.73
537.92	1683.43
538.12	1667.05
538.32	1753.06
538.53	1708.01
538.73	1636.33
538.93	1646.57
539.13	1636.33
539.34	1763.30
539.54	1636.33
539.74	1789.92
539.94	1734.63
540.15	1839.08
540.35	1662.95
540.55	1740.77
540.75	1609.70
540.96	1720.29
541.16	1693.67
541.36	1771.49
541.56	1679.33
541.77	1765.35
541.97	1697.77
542.17	1552.36
542.37	1822.69
542.58	1781.73
542.78	1802.21
542.98	1697.77
543.18	1740.77
543.38	1724.39
543.59	1667.05
543.79	1685.48
543.99	1757.16
544.19	1671.14
544.40	1748.97
544.60	1640.42
544.80	1687.53
545.00	1607.66
545.20	1826.79
545.41	1689.57
545.61	1624.04
545.81	1662.95
546.01	1775.59
546.21	1722.34
546.42	1720.29
546.62	1783.78
546.82	1636.33
547.02	1650.66
547.22	1683.43
547.43	1806.31
547.63	1736.68
547.83	1644.52
548.03	1611.75
548.23	1916.90
548.44	1695.72
548.64	1636.33
548.84	1724.39
549.04	1568.74
549.24	1816.55
549.45	1966.05
549.65	1609.70
549.85	1748.97
550.05	1734.63
550.25	1615.85
550.45	1695.72
550.66	1757.16
550.86	1617.90
551.06	1648.61
551.26	1708.01
551.46	1705.96
551.66	1681.38
551.87	1738.73
552.07	1683.43
552.27	1648.61
552.47	1718.25
552.67	1621.99
552.87	1755.11
553.07	1677.29
553.28	1726.44
553.48	1662.95
553.68	1679.33
553.88	1746.92
554.08	1646.57
554.28	1646.57
554.48	1658.85
554.69	1755.11
554.89	1730.53
555.09	1724.39
555.29	1640.42
555.49	1771.49
555.69	1656.81
555.89	1734.63
556.10	1701.86
556.30	1632.23
556.50	1757.16
556.70	1671.14
556.90	1695.72
557.10	1730.53
557.30	1718.25
557.50	1603.56
557.70	1703.91
557.91	1644.52
558.11	1685.48
558.31	1775.59
558.51	1753.06
558.71	1634.28
558.91	1771.49
559.11	1671.14
559.31	1667.05
559.51	1609.70
559.72	1781.73
559.92	1742.82
560.12	1642.47
560.32	1765.35
560.52	1724.39
560.72	1675.24
560.92	1701.86
561.12	1767.40
561.32	1748.97
561.52	1601.51
561.72	1837.03
561.93	1740.77
562.13	1675.24
562.33	1691.62
562.53	1710.05
562.73	1736.68
562.93	1701.86
563.13	1646.57
563.33	1808.36
563.53	1736.68
563.73	1724.39
563.93	1804.26
564.13	1814.50
564.33	1708.01
564.53	1765.35
564.74	1681.38
564.94	1697.77
565.14	1787.88
565.34	1705.96
565.54	1726.44
565.74	1652.71
565.94	1740.77
566.14	1646.57
566.34	1705.96
566.54	1738.73
566.74	1687.53
566.94	1691.62
567.14	1597.42
567.34	1652.71
567.54	1742.82
567.74	1740.77
567.94	1665.00
568.14	1671.14
568.34	1789.92
568.54	1654.76
568.74	1687.53
568.94	1662.95
569.14	1812.45
569.34	1765.35
569.54	1701.86
569.75	1701.86
569.95	1693.67
570.15	1798.12
570.35	1714.15
570.55	1687.53
570.75	1689.57
570.95	1687.53
571.15	1791.97
571.35	1675.24
571.55	1693.67
571.75	1740.77
571.95	1667.05
572.15	1718.25
572.35	1671.14
572.55	1718.25
572.75	1681.38
572.95	1648.61
573.15	1714.15
573.35	1757.16
573.55	1675.24
573.75	1701.86
573.95	1845.22
574.15	1693.67
574.35	1652.71
574.55	1675.24
574.75	1691.62
574.95	1759.21
575.15	1638.38
575.34	1660.90
575.54	1683.43
575.74	1687.53
575.94	1687.53
576.14	1628.14
576.34	1658.85
576.54	1638.38
576.74	1740.77
576.94	1683.43
577.14	1699.81
577.34	1767.40
577.54	1697.77
577.74	1576.94
577.94	1669.09
578.14	1617.90
578.34	1742.82
578.54	1630.18
578.74	1667.05
578.94	1669.09
579.14	1800.16
579.34	1607.66
579.54	1736.68
579.74	1677.29
579.94	1675.24
580.13	1726.44
580.33	1710.05
580.53	1703.91
580.73	1648.61
580.93	1796.07
581.13	1634.28
581.33	1748.97
581.53	1724.39
581.73	1658.85
581.93	1607.66
582.13	1796.07
582.33	1667.05
582.53	1589.22
582.73	1789.92
582.92	1634.28
583.12	1724.39
583.32	1673.19
583.52	1665.00
583.72	1724.39
583.92	1712.10
584.12	1716.20
584.32	1648.61
584.52	1583.08
584.72	1656.81
584.92	1617.90
585.11	1689.57
585.31	1808.36
585.51	1644.52
585.71	1738.73
585.91	1810.40
586.11	1646.57
586.31	1757.16
586.51	1683.43
586.71	1714.15
586.91	1628.14
587.10	1714.15
587.30	1787.88
587.50	1687.53
587.70	1722.34
587.90	1748.97
588.10	1652.71
588.30	1693.67
588.50	1703.91
588.69	1617.90
588.89	1753.06
589.09	1748.97
589.29	1621.99
589.49	1699.81
589.69	1593.32
589.89	1798.12
590.08	1751.01
590.28	1675.24
590.48	1701.86
590.68	1644.52
590.88	1621.99
591.08	1716.20
591.28	1681.38
591.47	1693.67
591.67	1601.51
591.87	1648.61
592.07	1871.84
592.27	1583.08
592.47	1650.66
592.67	1699.81
592.86	1769.44
593.06	1658.85
593.26	1773.54
593.46	1732.58
593.66	1587.18
593.86	1814.50
594.05	1794.02
594.25	1632.23
594.45	1683.43
594.65	1830.88
594.85	1751.01
595.05	1650.66
595.24	1624.04
595.44	1617.90
595.64	1576.94
595.84	1687.53
596.04	1724.39
596.23	1722.34
596.43	1742.82
596.63	1675.24
596.83	1646.57
597.03	1751.01
597.22	1687.53
597.42	1728.49
597.62	1667.05
597.82	1675.24
598.02	1675.24
598.21	1626.09
598.41	1646.57
598.61	1683.43
598.81	1646.57
599.01	1765.35
599.20	1699.81
599.40	1650.66
599.60	1753.06
599.80	1740.77
600.00	1798.12
600.19	1695.72
600.39	1652.71
600.59	1742.82
600.79	1832.93
600.98	1757.16
601.18	1777.64
601.38	1714.15
601.58	1642.47
601.78	1634.28
601.97	1794.02
602.17	1705.96
602.37	1640.42
602.57	1718.25
602.76	1708.01
602.96	1634.28
603.16	1595.37
603.36	1755.11
603.55	1712.10
603.75	1662.95
603.95	1773.54
604.15	1697.77
604.34	1703.91
604.54	1675.24
604.74	1794.02
604.94	1767.40
605.13	1630.18
605.33	1679.33
605.53	1677.29
605.73	1746.92
605.92	1718.25
606.12	1667.05
606.32	1691.62
606.52	1771.49
606.71	1681.38
606.91	1718.25
607.11	1699.81
607.30	1761.25
607.50	1716.20
607.70	1789.92
607.90	1697.77
608.09	1716.20
608.29	1726.44
608.49	1773.54
608.68	1630.18
608.88	1685.48
609.08	1656.81
609.28	1679.33
609.47	1701.86
609.67	1724.39
609.87	1712.10
610.06	1720.29
610.26	1724.39
610.46	1884.13
610.66	1646.57
610.85	1599.46
611.05	1789.92
611.25	1687.53
611.44	1693.67
611.64	1734.63
611.84	1728.49
612.03	1660.90
612.23	1673.19
612.43	1751.01
612.62	1673.19
612.82	1798.12
613.02	1728.49
613.21	1738.73
613.41	1763.30
613.61	1613.80
613.80	1662.95
614.00	1677.29
614.20	1734.63
614.39	1802.21
614.59	1742.82
614.79	1662.95
614.98	1714.15
615.18	1722.34
615.38	1640.42
615.57	1716.20
615.77	1783.78
615.97	1705.96
616.16	1673.19
616.36	1757.16
616.56	1683.43
616.75	1574.89
616.95	1562.60
617.15	1732.58
617.34	1675.24
617.54	1740.77
617.74	1763.30
617.93	1847.27
618.13	1712.10
618.32	1652.71
618.52	1761.25
618.72	1632.23
618.91	1740.77
619.11	1777.64
619.31	1798.12
619.50	1685.48
619.70	1691.62
619.90	1640.42
620.09	1691.62
620.29	1714.15
620.48	1814.50
620.68	1705.96
620.88	1787.88
621.07	1781.73
621.27	1724.39
621.46	1677.29
621.66	1683.43
621.86	1716.20
622.05	1570.79
622.25	1845.22
622.44	1619.94
622.64	1691.62
622.84	1683.43
623.03	1669.09
623.23	1705.96
623.42	1820.64
623.62	1714.15
623.82	1761.25
624.01	1716.20
624.21	1708.01
624.40	1728.49
624.60	1624.04
624.80	1675.24
624.99	1683.43
625.19	1755.11
625.38	1757.16
625.58	1695.72
625.77	1687.53
625.97	1722.34
626.17	1691.62
626.36	1722.34
626.56	1761.25
626.75	1658.85
626.95	1716.20
627.14	1757.16
627.34	1697.77
627.54	1726.44
627.73	1837.03
627.93	1708.01
628.12	1716.20
628.32	1804.26
628.51	1677.29
628.71	1703.91
628.90	1783.78
629.10	1630.18
629.30	1683.43
629.49	1775.59
629.69	1656.81
629.88	1720.29
630.08	1763.30
630.27	1810.40
630.47	1751.01
630.66	1640.42
630.86	1738.73
631.05	1671.14
631.25	1708.01
631.44	1781.73
631.64	1662.95
631.84	1691.62
632.03	1740.77
632.23	1712.10
632.42	1740.77
632.62	1632.23
632.81	1638.38
633.01	1693.67
633.20	1757.16
633.40	1718.25
633.59	1755.11
633.79	1665.00
633.98	1761.25
634.18	1820.64
634.37	1740.77
634.57	1638.38
634.76	1681.38
634.96	1839.08
635.15	1847.27
635.35	1728.49
635.54	1751.01
635.74	1642.47
635.93	1681.38
636.13	1728.49
636.32	1703.91
636.52	1656.81
636.71	1634.28
636.91	1691.62
637.10	1757.16
637.30	1669.09
637.49	1628.14
637.69	1689.57
637.88	1757.16
638.08	1589.22
638.27	1699.81
638.46	1714.15
638.66	1681.38
638.85	1642.47
639.05	1736.68
639.24	1753.06
639.44	1716.20
639.63	1644.52
639.83	1757.16
640.02	1720.29
640.22	1675.24
640.41	1626.09
640.61	1837.03
640.80	1798.12
640.99	1699.81
641.19	1712.10
641.38	1789.92
641.58	1720.29
641.77	1673.19
641.97	1646.57
642.16	1730.53
642.36	1769.44
642.55	1716.20
642.74	1718.25
642.94	1708.01
643.13	1712.10
643.33	1763.30
643.52	1699.81
643.72	1753.06
643.91	1634.28
644.10	1839.08
644.30	1640.42
644.49	1697.77
644.69	1732.58
644.88	1703.91
645.08	1728.49
645.27	1759.21
645.46	1626.09
645.66	1710.05
645.85	1683.43
646.05	1722.34
646.24	1644.52
646.43	1660.90
646.63	1714.15
646.82	1681.38
647.02	1718.25
647.21	1871.84
647.40	1648.61
647.60	1638.38
647.79	1669.09
647.99	1648.61
648.18	1671.14
648.37	1708.01
648.57	1744.87
648.76	1634.28
648.96	1671.14
649.15	1644.52
649.34	1861.60
649.54	1687.53
649.73	1693.67
649.92	1695.72
650.12	1689.57
650.31	1697.77
650.51	1943.52
650.70	1808.36
650.89	1656.81
651.09	1800.16
651.28	1775.59
651.47	1642.47
651.67	1789.92
651.86	1806.31
652.06	1585.13
652.25	1681.38
652.44	1617.90
652.64	1777.64
652.83	1675.24
653.02	1759.21
653.22	1779.68
653.41	1630.18
653.60	1650.66
653.80	1708.01
653.99	1746.92
654.18	1648.61
654.38	1593.32
654.57	1748.97
654.76	1738.73
654.96	1794.02
655.15	1650.66
655.34	1646.57
655.54	1632.23
655.73	1695.72
655.92	1732.58
656.12	1714.15
656.31	1826.79
656.50	1712.10
656.70	1691.62
656.89	1667.05
657.08	1636.33
657.28	1712.10
657.47	1671.14
657.66	1667.05
657.86	1660.90
658.05	1701.86
658.24	1699.81
658.43	1814.50
658.63	1646.57
658.82	1791.97
659.01	1734.63
659.21	1785.83
659.40	1660.90
659.59	1816.55
659.79	1720.29
659.98	1804.26
660.17	1724.39
660.36	1818.60
660.56	1804.26
660.75	1761.25
660.94	1646.57
661.14	1658.85
661.33	1617.90
661.52	1697.77
661.71	1726.44
661.91	1689.57
662.10	1673.19
662.29	1677.29
662.49	1703.91
662.68	1597.42
662.87	1728.49
663.06	1718.25
663.26	1546.22
663.45	1761.25
663.64	1755.11
663.83	1708.01
664.03	1794.02
664.22	1734.63
664.41	1839.08
664.60	1755.11
664.80	1648.61
664.99	1726.44
665.18	1779.68
665.37	1748.97
665.57	1728.49
665.76	1638.38
665.95	1734.63
666.14	1662.95
666.34	1703.91
666.53	1736.68
666.72	1601.51
666.91	1671.14
667.11	1644.52
667.30	1859.56
667.49	1673.19
667.68	1748.97
667.87	1757.16
668.07	1791.97
668.26	1542.12
668.45	1640.42
668.64	1718.25
668.84	1804.26
669.03	1703.91
669.22	1744.87
669.41	1691.62
669.60	1646.57
669.80	1757.16
669.99	1681.38
670.18	1652.71
670.37	1810.40
670.57	1787.88
670.76	1773.54
670.95	1763.30
671.14	1650.66
671.33	1638.38
671.53	1724.39
671.72	1771.49
671.91	1789.92
672.10	1665.00
672.29	1712.10
672.48	1705.96
672.68	1689.57
672.87	1605.61
673.06	1738.73
673.25	1783.78
673.44	1697.77
673.64	1675.24
673.83	1656.81
674.02	1669.09
674.21	1742.82
674.40	1693.67
674.59	1759.21
674.79	1654.76
674.98	1816.55
675.17	1800.16
675.36	1619.94
675.55	1665.00
675.74	1679.33
675.94	1808.36
676.13	1769.44
676.32	1636.33
676.51	1693.67
676.70	1535.98
676.89	1671.14
677.08	1705.96
677.28	1830.88
677.47	1716.20
677.66	1773.54
677.85	1642.47
678.04	1683.43
678.23	1787.88
678.42	1626.09
678.62	1669.09
678.81	1677.29
679.00	1652.71
679.19	1781.73
679.38	1720.29
679.57	1748.97
679.76	1632.23
679.96	1673.19
680.15	1789.92
680.34	1681.38
680.53	1798.12
680.72	1787.88
680.91	1609.70
681.10	1796.07
681.29	1665.00
681.48	1742.82
681.68	1738.73
681.87	1728.49
682.06	1710.05
682.25	1822.69
682.44	1640.42
682.63	1828.84
682.82	1624.04
683.01	1744.87
683.20	1683.43
683.39	1722.34
683.59	1695.72
683.78	1703.91
683.97	1724.39
684.16	1665.00
684.35	1568.74
684.54	1662.95
684.73	1703.91
684.92	1634.28
685.11	1802.21
685.30	1714.15
685.49	1581.03
685.69	1748.97
685.88	1644.52
686.07	1626.09
686.26	1685.48
686.45	1730.53
686.64	1796.07
686.83	1679.33
687.02	1679.33
687.21	1800.16
687.40	1718.25
687.59	1834.98
687.78	1798.12
687.97	1732.58
688.16	1673.19
688.35	1662.95
688.54	1662.95
688.74	1597.42
688.93	1736.68
689.12	1685.48
689.31	1818.60
689.50	1744.87
689.69	1697.77
689.88	1724.39
690.07	1665.00
690.26	1720.29
690.45	1662.95
690.64	1667.05
690.83	1687.53
691.02	1677.29
691.21	1695.72
691.40	1667.05
691.59	1615.85
691.78	1728.49
691.97	1658.85
692.16	1650.66
692.35	1732.58
692.54	1740.77
692.73	1685.48
692.92	1703.91
693.11	1751.01
693.30	1740.77
693.49	1716.20
693.68	1734.63
693.87	1738.73
694.06	1689.57
694.25	1613.80
694.44	1720.29
694.63	1632.23
694.82	1675.24
695.01	1773.54
695.20	1738.73
695.39	1644.52
695.58	1687.53
695.77	1562.60
695.96	1722.34
696.15	1665.00
696.34	1601.51
696.53	1703.91
696.72	1695.72
696.91	1658.85
697.10	1744.87
697.29	1648.61
697.48	1830.88
697.67	1761.25
697.86	1685.48
698.05	1675.24
698.24	1787.88
698.43	1773.54
698.62	1685.48
698.81	1705.96
699.00	1738.73
699.19	1740.77
699.38	1720.29
699.57	1648.61
699.76	1720.29
699.95	1601.51
700.14	1662.95
700.32	1673.19
700.51	1636.33
700.70	1716.20
700.89	1808.36
701.08	1755.11
701.27	1679.33
701.46	1738.73
701.65	1691.62
701.84	1697.77
702.03	1691.62
702.22	1669.09
702.41	1738.73
702.60	1716.20
702.79	1691.62
702.98	1646.57
703.17	1771.49
703.35	1732.58
703.54	1712.10
703.73	1722.34
703.92	1656.81
704.11	1632.23
704.30	1751.01
704.49	1751.01
704.68	1693.67
704.87	1683.43
705.06	1789.92
705.25	1632.23
705.43	1673.19
705.62	1621.99
705.81	1708.01
706.00	1632.23
706.19	1742.82
706.38	1652.71
706.57	1773.54
706.76	1632.23
706.95	1683.43
707.14	1757.16
707.32	1687.53
707.51	1660.90
707.70	1673.19
707.89	1665.00
708.08	1736.68
708.27	1763.30
708.46	1708.01
708.65	1611.75
708.84	1775.59
709.02	1695.72
709.21	1640.42
709.40	1701.86
709.59	1665.00
709.78	1671.14
709.97	1689.57
710.16	1710.05
710.34	1662.95
710.53	1742.82
710.72	1660.90
710.91	1697.77
711.10	1615.85
711.29	1677.29
711.48	1746.92
711.66	1705.96
711.85	1679.33
712.04	1701.86
712.23	1701.86
712.42	1777.64
712.61	1710.05
712.80	1630.18
712.98	1671.14
713.17	1619.94
713.36	1724.39
713.55	1755.11
713.74	1753.06
713.93	1804.26
714.11	1679.33
714.30	1548.26
714.49	1773.54
714.68	1748.97
714.87	1636.33
715.06	1794.02
715.24	1742.82
715.43	1632.23
715.62	1585.13
715.81	1744.87
716.00	1736.68
716.18	1687.53
716.37	1781.73
716.56	1640.42
716.75	1669.09
716.94	1650.66
717.12	1718.25
717.31	1599.46
717.50	1746.92
717.69	1675.24
717.88	1667.05
718.06	1701.86
718.25	1757.16
718.44	1613.80
718.63	1667.05
718.82	1644.52
719.00	1679.33
719.19	1824.74
719.38	1656.81
719.57	1677.29
719.76	1648.61
719.94	1681.38
720.13	1658.85
720.32	1789.92
720.51	1683.43
720.69	1757.16
720.88	1777.64
721.07	1767.40
721.26	1812.45
721.44	1740.77
721.63	1703.91
721.82	1712.10
722.01	1728.49
722.20	1695.72
722.38	1712.10
722.57	1665.00
722.76	1683.43
722.95	1611.75
723.13	1576.94
723.32	1693.67
723.51	1712.10
723.70	1755.11
723.88	1656.81
724.07	1640.42
724.26	1753.06
724.44	1705.96
724.63	1828.84
724.82	1667.05
725.01	1667.05
725.19	1689.57
725.38	1730.53
725.57	1648.61
725.76	1787.88
725.94	1644.52
726.13	1650.66
726.32	1640.42
726.51	1710.05
726.69	1738.73
726.88	1703.91
727.07	1708.01
727.25	1609.70
727.44	1705.96
727.63	1722.34
727.82	1642.47
728.00	1687.53
728.19	1730.53
728.38	1634.28
728.56	1581.03
728.75	1769.44
728.94	1765.35
729.12	1738.73
729.31	1693.67
729.50	1665.00
729.69	1753.06
729.87	1685.48
730.06	1593.32
730.25	1695.72
730.43	1644.52
730.62	1605.61
730.81	1652.71
730.99	1662.95
731.18	1722.34
731.37	1697.77
731.55	1763.30
731.74	1708.01
731.93	1724.39
732.11	1714.15
732.30	1660.90
732.49	1683.43
732.67	1665.00
732.86	1628.14
733.05	1581.03
733.23	1691.62
733.42	1656.81
733.61	1640.42
733.79	1675.24
733.98	1800.16
734.17	1652.71
734.35	1687.53
734.54	1695.72
734.73	1703.91
734.91	1583.08
735.10	1656.81
735.29	1673.19
735.47	1662.95
735.66	1611.75
735.84	1748.97
736.03	1673.19
736.22	1703.91
736.40	1708.01
736.59	1650.66
736.78	1662.95
736.96	1673.19
737.15	1611.75
737.33	1755.11
737.52	1644.52
737.71	1675.24
737.89	1699.81
738.08	1654.76
738.27	1773.54
738.45	1834.98
738.64	1683.43
738.82	1705.96
739.01	1742.82
739.20	1703.91
739.38	1736.68
739.57	1732.58
739.75	1708.01
739.94	1728.49
740.13	1630.18
740.31	1656.81
740.50	1705.96
740.68	1699.81
740.87	1650.66
741.06	1716.20
741.24	1789.92
741.43	1665.00
741.61	1591.27
741.80	1667.05
741.99	1597.42
742.17	1732.58
742.36	1574.89
742.54	1644.52
742.73	1765.35
742.91	1708.01
743.10	1773.54
743.29	1648.61
743.47	1695.72
743.66	1615.85
743.84	1671.14
744.03	1642.47
744.21	1722.34
744.40	1697.77
744.59	1630.18
744.77	1634.28
744.96	1744.87
745.14	1708.01
745.33	1689.57
745.51	1724.39
745.70	1650.66
745.88	1691.62
746.07	1630.18
746.26	1671.14
746.44	1630.18
746.63	1538.02
746.81	1775.59
747.00	1654.76
747.18	1628.14
747.37	1597.42
747.55	1693.67
747.74	1933.28
747.92	1640.42
748.11	1699.81
748.29	1673.19
748.48	1753.06
748.66	1697.77
748.85	1699.81
749.03	1638.38
749.22	1609.70
749.41	1699.81
749.59	1732.58
749.78	1638.38
749.96	1572.84
750.15	1601.51
750.33	1722.34
750.52	1658.85
750.70	1716.20
750.89	1714.15
751.07	1581.03
751.26	1671.14
751.44	1585.13
751.63	1626.09
751.81	1650.66
752.00	1654.76
752.18	1656.81
752.37	1738.73
752.55	1679.33
752.74	1720.29
752.92	1677.29
753.10	1652.71
753.29	1644.52
753.47	1640.42
753.66	1607.66
753.84	1640.42
754.03	1636.33
754.21	1734.63
754.40	1697.77
754.58	1800.16
754.77	1720.29
754.95	1687.53
755.14	1705.96
755.32	1660.90
755.51	1621.99
755.69	1642.47
755.88	1632.23
756.06	1722.34
756.24	1662.95
756.43	1687.53
756.61	1652.71
756.80	1624.04
756.98	1611.75
757.17	1714.15
757.35	1728.49
757.54	1714.15
757.72	1564.65
757.90	1693.67
758.09	1742.82
758.27	1660.90
758.46	1605.61
758.64	1724.39
758.83	1705.96
759.01	1691.62
759.19	1753.06
759.38	1632.23
759.56	1714.15
759.75	1638.38
759.93	1765.35
760.12	1642.47
760.30	1650.66
760.48	1705.96
760.67	1648.61
760.85	1648.61
761.04	1609.70
761.22	1648.61
761.40	1687.53
761.59	1607.66
761.77	1699.81
761.96	1726.44
762.14	1693.67
762.32	1779.68
762.51	1634.28
762.69	1720.29
762.88	1785.83
763.06	1611.75
763.24	1679.33
763.43	1640.42
763.61	1701.86
763.80	1703.91
763.98	1712.10
764.16	1624.04
764.35	1621.99
764.53	1650.66
764.72	1662.95
764.90	1695.72
765.08	1697.77
765.27	1832.93
765.45	1593.32
765.63	1587.18
765.82	1722.34
766.00	1724.39
766.18	1728.49
766.37	1699.81
766.55	1667.05
766.74	1744.87
766.92	1683.43
767.10	1644.52
767.29	1708.01
767.47	1648.61
767.65	1658.85
767.84	1671.14
768.02	1759.21
768.20	1732.58
768.39	1640.42
768.57	1677.29
768.75	1617.90
768.94	1794.02
769.12	1646.57
769.30	1724.39
769.49	1718.25
769.67	1593.32
769.85	1763.30
770.04	1628.14
770.22	1662.95
770.40	1724.39
770.59	1665.00
770.77	1775.59
770.95	1722.34
771.14	1667.05
771.32	1544.17
771.50	1667.05
771.69	1578.98
771.87	1617.90
772.05	1681.38
772.24	1611.75
772.42	1648.61
772.60	1683.43
772.78	1732.58
772.97	1560.55
773.15	1648.61
773.33	1658.85
773.52	1632.23
773.70	1716.20
773.88	1716.20
774.07	1654.76
774.25	1599.46
774.43	1734.63
774.61	1658.85
774.80	1636.33
774.98	1699.81
775.16	1683.43
775.34	1710.05
775.53	1759.21
775.71	1716.20
775.89	1703.91
776.08	1781.73
776.26	1697.77
776.44	1699.81
776.62	1679.33
776.81	1662.95
776.99	1732.58
777.17	1724.39
777.35	1691.62
777.54	1693.67
777.72	1759.21
777.90	1595.37
778.08	1650.66
778.27	1705.96
778.45	1609.70
778.63	1642.47
778.81	1695.72
779.00	1681.38
779.18	1734.63
779.36	1755.11
779.54	1740.77
779.73	1648.61
779.91	1656.81
780.09	1683.43
780.27	1693.67
780.46	1720.29
780.64	1628.14
780.82	1576.94
781.00	1654.76
781.19	1658.85
781.37	1652.71
781.55	1794.02
781.73	1665.00
781.91	1585.13
782.10	1679.33
782.28	1650.66
782.46	1689.57
782.64	1662.95
782.82	1787.88
783.01	1640.42
783.19	1671.14
783.37	1665.00
783.55	1640.42
783.74	1691.62
783.92	1638.38
784.10	1665.00
784.28	1699.81
784.46	1665.00
784.64	1615.85
784.83	1689.57
785.01	1875.94
785.19	1742.82
785.37	1753.06
785.55	1712.10
785.74	1695.72
785.92	1652.71
786.10	1650.66
786.28	1763.30
786.46	1732.58
786.64	1638.38
786.83	1642.47
787.01	1654.76
787.19	1773.54
787.37	1802.21
787.55	1652.71
787.74	1589.22
787.92	1646.57
788.10	1722.34
788.28	1691.62
788.46	1662.95
788.64	1712.10
788.82	1667.05
789.01	1636.33
789.19	1722.34
789.37	1685.48
789.55	1646.57
789.73	1531.88
789.91	1677.29
790.09	1644.52
790.28	1648.61
790.46	1619.94
790.64	1722.34
790.82	1718.25
791.00	1640.42
791.18	1662.95
791.36	1673.19
791.55	1761.25
791.73	1632.23
791.91	1644.52
792.09	1617.90
792.27	1546.22
792.45	1759.21
792.63	1765.35
792.81	1650.66
793.00	1734.63
793.18	1671.14
793.36	1800.16
793.54	1652.71
793.72	1585.13
793.90	1689.57
794.08	1562.60
794.26	1738.73
794.44	1564.65
794.62	1603.56
794.81	1640.42
794.99	1665.00
795.17	1724.39
795.35	1638.38
795.53	1667.05
795.71	1683.43
795.89	1535.98
796.07	1685.48
796.25	1722.34
796.43	1755.11
796.61	1695.72
796.80	1609.70
796.98	1632.23
797.16	1691.62
797.34	1613.80
797.52	1619.94
797.70	1748.97
797.88	1720.29
798.06	1656.81
798.24	1705.96
798.42	1630.18
798.60	1738.73
798.78	1677.29
798.96	1656.81
799.14	1656.81
799.32	1736.68
799.51	1630.18
799.69	1757.16
799.87	1722.34
800.05	1689.57
800.23	1583.08
800.41	1656.81
800.59	1648.61
800.77	1679.33
800.95	1527.78
801.13	1791.97
801.31	1693.67
801.49	1773.54
801.67	1646.57
801.85	1599.46
802.03	1667.05
802.21	1660.90
802.39	1587.18
802.57	1681.38
802.75	1748.97
802.93	1748.97
803.11	1591.27
803.29	1669.09
803.47	1734.63
803.65	1691.62
803.83	1652.71
804.01	1656.81
804.19	1644.52
804.37	1644.52
804.55	1603.56
804.73	1775.59
804.91	1644.52
805.09	1710.05
805.27	1757.16
805.45	1652.71
805.63	1689.57
805.81	1716.20
805.99	1703.91
806.17	1662.95
806.35	1630.18
806.53	1607.66
806.71	1599.46
806.89	1720.29
807.07	1757.16
807.25	1634.28
807.43	1628.14
807.61	1828.84
807.79	1691.62
807.97	1710.05
808.15	1640.42
808.33	1662.95
808.51	1730.53
808.69	1708.01
808.87	1658.85
809.05	1578.98
809.23	1636.33
809.41	1679.33
809.59	1636.33
809.77	1712.10
809.95	1712.10
810.13	1753.06
810.31	1677.29
810.49	1583.08
810.67	1642.47
810.84	1718.25
811.02	1583.08
811.20	1601.51
811.38	1798.12
811.56	1585.13
811.74	1712.10
811.92	1693.67
812.10	1667.05
812.28	1720.29
812.46	1708.01
812.64	1728.49
812.82	1656.81
813.00	1701.86
813.18	1699.81
813.36	1683.43
813.53	1710.05
813.71	1658.85
813.89	1644.52
814.07	1591.27
814.25	1683.43
814.43	1583.08
814.61	1597.42
814.79	1640.42
814.97	1693.67
815.15	1697.77
815.33	1574.89
815.50	1624.04
815.68	1613.80
815.86	1640.42
816.04	1701.86
816.22	1630.18
816.40	1667.05
816.58	1687.53
816.76	1675.24
816.94	1652.71
817.11	1601.51
817.29	1726.44
817.47	1630.18
817.65	1617.90
817.83	1740.77
818.01	1638.38
818.19	1533.93
818.37	1716.20
818.54	1699.81
818.72	1705.96
818.90	1679.33
819.08	1751.01
819.26	1665.00
819.44	1794.02
819.62	1650.66
819.80	1667.05
819.97	1724.39
820.15	1769.44
820.33	1650.66
820.51	1597.42
820.69	1613.80
820.87	1669.09
821.05	1722.34
821.22	1568.74
821.40	1667.05
821.58	1722.34
821.76	1644.52
821.94	1648.61
822.12	1660.90
822.29	1595.37
822.47	1644.52
822.65	1689.57
822.83	1638.38
823.01	1648.61
823.19	1650.66
823.36	1619.94
823.54	1578.98
823.72	1744.87
823.90	1662.95
824.08	1624.04
824.25	1660.90
824.43	1656.81
824.61	1576.94
824.79	1675.24
824.97	1585.13
825.15	1644.52
825.32	1568.74
825.50	1673.19
825.68	1632.23
825.86	1689.57
826.04	1599.46
826.21	1703.91
826.39	1687.53
826.57	1667.05
826.75	1644.52
826.93	1675.24
827.10	1726.44
827.28	1660.90
827.46	1679.33
827.64	1665.00
827.81	1683.43
827.99	1597.42
828.17	1675.24
828.35	1679.33
828.53	1726.44
828.70	1699.81
828.88	1607.66
829.06	1628.14
829.24	1632.23
829.41	1695.72
829.59	1691.62
829.77	1671.14
829.95	1691.62
830.12	1566.70
830.30	1740.77
830.48	1679.33
830.66	1634.28
830.84	1658.85
831.01	1681.38
831.19	1593.32
831.37	1736.68
831.55	1722.34
831.72	1716.20
831.90	1787.88
832.08	1656.81
832.25	1718.25
832.43	1685.48
832.61	1826.79
832.79	1531.88
832.96	1699.81
833.14	1785.83
833.32	1726.44
833.50	1634.28
833.67	1687.53
833.85	1585.13
834.03	1660.90
834.20	1710.05
834.38	1800.16
834.56	1699.81
834.74	1624.04
834.91	1634.28
835.09	1740.77
835.27	1591.27
835.44	1673.19
835.62	1609.70
835.80	1564.65
835.98	1683.43
836.15	1720.29
836.33	1652.71
836.51	1576.94
836.68	1640.42
836.86	1548.26
837.04	1724.39
837.21	1718.25
837.39	1667.05
837.57	1708.01
837.75	1695.72
837.92	1665.00
838.10	1708.01
838.28	1624.04
838.45	1648.61
838.63	1587.18
838.81	1689.57
838.98	1687.53
839.16	1667.05
839.34	1626.09
839.51	1689.57
839.69	1609.70
839.87	1607.66
840.04	1658.85
840.22	1974.24
840.40	1708.01
840.57	1605.61
840.75	1658.85
840.93	1583.08
841.10	1615.85
841.28	1644.52
841.46	1679.33
841.63	1679.33
841.81	1556.46
841.98	1626.09
842.16	1753.06
842.34	1708.01
842.51	1558.50
842.69	1687.53
842.87	1667.05
843.04	1701.86
843.22	1630.18
843.40	1636.33
843.57	1621.99
843.75	1597.42
843.92	1634.28
844.10	1699.81
844.28	1710.05
844.45	1527.78
844.63	1783.78
844.81	1673.19
844.98	1712.10
845.16	1675.24
845.33	1746.92
845.51	1599.46
845.69	1773.54
845.86	1710.05
846.04	1617.90
846.21	1648.61
846.39	1603.56
846.57	1607.66
846.74	1656.81
846.92	1712.10
847.09	1634.28
847.27	1626.09
847.45	1740.77
847.62	1738.73
847.80	1695.72
847.97	1617.90
848.15	1611.75
848.32	1589.22
848.50	1636.33
848.68	1587.18
848.85	1665.00
849.03	1544.17
849.20	1689.57
849.38	1667.05
849.56	1646.57
849.73	1607.66
849.91	1675.24
850.08	1761.25
850.26	1550.31
850.43	1652.71
850.61	1714.15
850.78	1572.84
850.96	1716.20
851.14	1578.98
851.31	1818.60
851.49	1597.42
851.66	1615.85
851.84	1540.07
852.01	1687.53
852.19	1550.31
852.36	1621.99
852.54	1619.94
852.71	1662.95
852.89	1693.67
853.07	1648.61
853.24	1624.04
853.42	1615.85
853.59	1609.70
853.77	1621.99
853.94	1730.53
854.12	1697.77
854.29	1605.61
854.47	1628.14
854.64	1677.29
854.82	1697.77
854.99	1732.58
855.17	1705.96
855.34	1611.75
855.52	1726.44
855.69	1763.30
855.87	1583.08
856.04	1640.42
856.22	1728.49
856.39	1646.57
856.57	1585.13
856.74	1587.18
856.92	1642.47
857.09	1642.47
857.27	1669.09
857.44	1677.29
857.62	1722.34
857.79	1654.76
857.97	1728.49
858.14	1697.77
858.32	1601.51
858.49	1621.99
858.67	1708.01
858.84	1677.29
859.02	1691.62
859.19	1679.33
859.37	1591.27
859.54	1609.70
859.72	1548.26
859.89	1540.07
860.06	1525.74
860.24	1626.09
860.41	1751.01
860.59	1570.79
860.76	1695.72
860.94	1556.46
861.11	1685.48
861.29	1681.38
861.46	1603.56
861.64	1677.29
861.81	1683.43
861.98	1636.33
862.16	1519.59
862.33	1533.93
862.51	1626.09
862.68	1628.14
862.86	1685.48
863.03	1593.32
863.21	1638.38
863.38	1556.46
863.55	1650.66
863.73	1687.53
863.90	1673.19
864.08	1609.70
864.25	1626.09
864.43	1658.85
864.60	1634.28
864.77	1546.22
864.95	1683.43
865.12	1628.14
865.30	1720.29
865.47	1662.95
865.64	1667.05
865.82	1648.61
865.99	1757.16
866.17	1615.85
866.34	1703.91
866.51	1544.17
866.69	1624.04
866.86	1810.40
867.04	1687.53
867.21	1677.29
867.38	1626.09
867.56	1728.49
867.73	1708.01
867.91	1628.14
868.08	1642.47
868.25	1646.57
868.43	1671.14
868.60	1624.04
868.78	1613.80
868.95	1646.57
869.12	1683.43
869.30	1597.42
869.47	1757.16
869.64	1646.57
869.82	1671.14
869.99	1718.25
870.16	1660.90
870.34	1722.34
870.51	1720.29
870.69	1585.13
870.86	1679.33
871.03	1636.33
871.21	1624.04
871.38	1744.87
871.55	1636.33
871.73	1662.95
871.90	1671.14
872.07	1665.00
872.25	1554.41
872.42	1560.55
872.59	1650.66
872.77	1619.94
872.94	1603.56
873.11	1587.18
873.29	1781.73
873.46	1679.33
873.63	1667.05
873.81	1609.70
873.98	1597.42
874.15	1552.36
874.33	1601.51
874.50	1697.77
874.67	1654.76
874.85	1523.69
875.02	1619.94
875.19	1636.33
875.37	1640.42
875.54	1574.89
875.71	1654.76
875.88	1708.01
876.06	1613.80
876.23	1642.47
876.40	1669.09
876.58	1658.85
876.75	1673.19
876.92	1591.27
877.10	1589.22
877.27	1607.66
877.44	1701.86
877.61	1609.70
877.79	1748.97
877.96	1757.16
878.13	1736.68
878.31	1656.81
878.48	1611.75
878.65	1703.91
878.82	1601.51
879.00	1679.33
879.17	1613.80
879.34	1624.04
879.51	1603.56
879.69	1652.71
879.86	1593.32
880.03	1691.62
880.21	1646.57
880.38	1619.94
880.55	1691.62
880.72	1720.29
880.90	1650.66
881.07	1636.33
881.24	1722.34
881.41	1675.24
881.59	1617.90
881.76	1722.34
881.93	1744.87
882.10	1673.19
882.28	1714.15
882.45	1712.10
882.62	1675.24
882.79	1605.61
882.96	1548.26
883.14	1697.77
883.31	1634.28
883.48	1564.65
883.65	1638.38
883.83	1687.53
884.00	1693.67
884.17	1646.57
884.34	1712.10
884.51	1826.79
884.69	1650.66
884.86	1703.91
885.03	1646.57
885.20	1535.98
885.38	1724.39
885.55	1650.66
885.72	1679.33
885.89	1593.32
886.06	1732.58
886.24	1636.33
886.41	1611.75
886.58	1691.62
886.75	1667.05
886.92	1564.65
887.10	1542.12
887.27	1599.46
887.44	1726.44
887.61	1710.05
887.78	1730.53
887.95	1650.66
888.13	1613.80
888.30	1660.90
888.47	1599.46
888.64	1638.38
888.81	1716.20
888.99	1593.32
889.16	1695.72
889.33	1638.38
889.50	1677.29
889.67	1716.20
889.84	1597.42
890.01	1695.72
890.19	1736.68
890.36	1669.09
890.53	1689.57
890.70	1654.76
890.87	1771.49
891.04	1632.23
891.22	1648.61
891.39	1656.81
891.56	1646.57
891.73	1708.01
891.90	1597.42
892.07	1525.74
892.24	1583.08
892.42	1675.24
892.59	1583.08
892.76	1708.01
892.93	1587.18
893.10	1630.18
893.27	1687.53
893.44	1529.83
893.61	1636.33
893.79	1699.81
893.96	1648.61
894.13	1691.62
894.30	1626.09
894.47	1695.72
894.64	1763.30
894.81	1687.53
894.98	1613.80
895.15	1779.68
895.33	1673.19
895.50	1650.66
895.67	1634.28
895.84	1728.49
896.01	1658.85
896.18	1572.84
896.35	1777.64
896.52	1673.19
896.69	1624.04
896.86	1599.46
897.04	1761.25
897.21	1712.10
897.38	1667.05
897.55	1646.57
897.72	1681.38
897.89	1705.96
898.06	1746.92
898.23	1576.94
898.40	1683.43
898.57	1636.33
898.74	1681.38
898.91	1558.50
899.08	1591.27
899.26	1736.68
899.43	1677.29
899.60	1683.43
899.77	1710.05
899.94	1609.70
900.11	1652.71
900.28	1617.90
900.45	1626.09
900.62	1609.70
900.79	1703.91
900.96	1646.57
901.13	1640.42
901.30	1621.99
901.47	1585.13
901.64	1640.42
901.81	1648.61
901.98	1550.31
902.15	1662.95
902.32	1624.04
902.49	1697.77
902.66	1722.34
902.83	1730.53
903.01	1624.04
903.18	1634.28
903.35	1634.28
903.52	1601.51
903.69	1714.15
903.86	1624.04
904.03	1681.38
904.20	1615.85
904.37	1732.58
904.54	1535.98
904.71	1646.57
904.88	1640.42
905.05	1583.08
905.22	1650.66
905.39	1576.94
905.56	1560.55
905.73	1519.59
905.90	1638.38
906.07	1619.94
906.24	1652.71
906.41	1654.76
906.58	1658.85
906.75	1650.66
906.92	1540.07
907.09	1634.28
907.26	1626.09
907.43	1486.83
907.60	1574.89
907.77	1675.24
907.93	1624.04
908.10	1548.26
908.27	1732.58
908.44	1558.50
908.61	1581.03
908.78	1621.99
908.95	1769.44
909.12	1658.85
909.29	1597.42
909.46	1630.18
909.63	1730.53
909.80	1679.33
909.97	1654.76
910.14	1658.85
910.31	1609.70
910.48	1648.61
910.65	1691.62
910.82	1601.51
910.99	1712.10
911.16	1634.28
911.33	1648.61
911.50	1638.38
911.66	1607.66
911.83	1683.43
912.00	1576.94
912.17	1527.78
912.34	1568.74
912.51	1691.62
912.68	1611.75
912.85	1681.38
913.02	1806.31
913.19	1550.31
913.36	1705.96
913.53	1701.86
913.70	1595.37
913.86	1636.33
914.03	1687.53
914.20	1650.66
914.37	1593.32
914.54	1585.13
914.71	1732.58
914.88	1660.90
915.05	1558.50
915.22	1611.75
915.39	1683.43
915.55	1650.66
915.72	1519.59
915.89	1568.74
916.06	1654.76
916.23	1601.51
916.40	1691.62
916.57	1628.14
916.74	1679.33
916.91	1705.96
917.07	1542.12
917.24	1501.16
917.41	1691.62
917.58	1699.81
917.75	1603.56
917.92	1558.50
918.09	1585.13
918.26	1679.33
918.42	1609.70
918.59	1650.66
918.76	1615.85
918.93	1585.13
919.10	1626.09
919.27	1619.94
919.44	1759.21
919.60	1638.38
919.77	1591.27
919.94	1544.17
920.11	1679.33
920.28	1687.53
920.45	1566.70
920.61	1578.98
920.78	1654.76
920.95	1656.81
921.12	1675.24
921.29	1634.28
921.46	1667.05
921.62	1581.03
921.79	1716.20
921.96	1626.09
922.13	1740.77
922.30	1654.76
922.47	1691.62
922.63	1591.27
922.80	1583.08
922.97	1527.78
923.14	1525.74
923.31	1587.18
923.47	1621.99
923.64	1789.92
923.81	1640.42
923.98	1718.25
924.15	1644.52
924.32	1658.85
924.48	1730.53
924.65	1667.05
924.82	1552.36
924.99	1626.09
925.15	1505.26
925.32	1763.30
925.49	1609.70
925.66	1703.91
925.83	1675.24
925.99	1552.36
926.16	1654.76
926.33	1640.42
926.50	1529.83
926.67	1685.48
926.83	1654.76
927.00	1685.48
927.17	1603.56
927.34	1671.14
927.50	1626.09
927.67	1828.84
927.84	1708.01
928.01	1585.13
928.17	1687.53
928.34	1675.24
928.51	1732.58
928.68	1621.99
928.84	1636.33
929.01	1656.81
929.18	1656.81
929.35	1689.57
929.51	1697.77
929.68	1554.41
929.85	1562.60
930.02	1642.47
930.18	1703.91
930.35	1642.47
930.52	1646.57
930.69	1642.47
930.85	1673.19
931.02	1589.22
931.19	1648.61
931.36	1652.71
931.52	1669.09
931.69	1716.20
931.86	1542.12
932.02	1705.96
932.19	1562.60
932.36	1646.57
932.53	1605.61
932.69	1634.28
932.86	1679.33
933.03	1665.00
933.19	1531.88
933.36	1609.70
933.53	1638.38
933.70	1611.75
933.86	1744.87
934.03	1720.29
934.20	1652.71
934.36	1789.92
934.53	1535.98
934.70	1556.46
934.86	1642.47
935.03	1716.20
935.20	1576.94
935.36	1638.38
935.53	1611.75
935.70	1621.99
935.86	1652.71
936.03	1564.65
936.20	1531.88
936.36	1644.52
936.53	1626.09
936.70	1634.28
936.86	1791.97
937.03	1626.09
937.20	1535.98
937.36	1748.97
937.53	1578.98
937.70	1554.41
937.86	1632.23
938.03	1703.91
938.20	1763.30
938.36	1595.37
938.53	1728.49
938.70	1554.41
938.86	1648.61
939.03	1699.81
939.20	1634.28
939.36	1570.79
939.53	1705.96
939.70	1843.17
939.86	1644.52
940.03	1712.10
940.19	1609.70
940.36	1662.95
940.53	1632.23
940.69	1656.81
940.86	1617.90
941.03	1558.50
941.19	1531.88
941.36	1640.42
941.52	1615.85
941.69	1583.08
941.86	1636.33
942.02	1699.81
942.19	1710.05
942.35	1648.61
942.52	1683.43
942.69	1548.26
942.85	1550.31
943.02	1568.74
943.18	1613.80
943.35	1546.22
943.52	1626.09
943.68	1593.32
943.85	1712.10
944.01	1656.81
944.18	1744.87
944.35	1714.15
944.51	1587.18
944.68	1546.22
944.84	1683.43
945.01	1574.89
945.17	1662.95
945.34	1708.01
945.51	1675.24
945.67	1673.19
945.84	1624.04
946.00	1570.79
946.17	1697.77
946.33	1570.79
946.50	1708.01
946.67	1720.29
946.83	1548.26
947.00	1724.39
947.16	1597.42
947.33	1593.32
947.49	1617.90
947.66	1546.22
947.82	1724.39
947.99	1621.99
948.16	1650.66
948.32	1597.42
948.49	1671.14
948.65	1665.00
948.82	1607.66
948.98	1595.37
949.15	1578.98
949.31	1632.23
949.48	1648.61
949.64	1642.47
949.81	1648.61
949.97	1564.65
950.14	1679.33
950.30	1540.07
950.47	1648.61
950.63	1593.32
950.80	1595.37
950.96	1611.75
951.13	1656.81
951.30	1667.05
951.46	1583.08
951.63	1697.77
951.79	1636.33
951.96	1691.62
952.12	1669.09
952.29	1619.94
952.45	1548.26
952.62	1560.55
952.78	1712.10
952.94	1630.18
953.11	1624.04
953.27	1540.07
953.44	1740.77
953.60	1540.07
953.77	1705.96
953.93	1652.71
954.10	1562.60
954.26	1656.81
954.43	1662.95
954.59	1728.49
954.76	1730.53
954.92	1662.95
955.09	1703.91
955.25	1542.12
955.42	1644.52
955.58	1630.18
955.75	1581.03
955.91	1568.74
956.07	1632.23
956.24	1693.67
956.40	1695.72
956.57	1675.24
956.73	1630.18
956.90	1624.04
957.06	1644.52
957.23	1640.42
957.39	1562.60
957.56	1611.75
957.72	1550.31
957.88	1583.08
958.05	1654.76
958.21	1738.73
958.38	1626.09
958.54	1595.37
958.71	1710.05
958.87	1654.76
959.03	1624.04
959.20	1646.57
959.36	1466.35
959.53	1636.33
959.69	1533.93
959.85	1646.57
960.02	1589.22
960.18	1609.70
960.35	1599.46
960.51	1642.47
960.68	1568.74
960.84	1636.33
961.00	1591.27
961.17	1507.30
961.33	1667.05
961.50	1640.42
961.66	1681.38
961.82	1693.67
961.99	1617.90
962.15	1656.81
962.31	1605.61
962.48	1667.05
962.64	1683.43
962.81	1613.80
962.97	1638.38
963.13	1640.42
963.30	1589.22
963.46	1519.59
963.62	1533.93
963.79	1585.13
963.95	1611.75
964.12	1609.70
964.28	1656.81
964.44	1566.70
964.61	1705.96
964.77	1660.90
964.93	1732.58
965.10	1660.90
965.26	1538.02
965.42	1624.04
965.59	1568.74
965.75	1568.74
965.92	1562.60
966.08	1736.68
966.24	1626.09
966.41	1583.08
966.57	1716.20
966.73	1687.53
966.90	1642.47
967.06	1558.50
967.22	1609.70
967.39	1482.73
967.55	1611.75
967.71	1644.52
967.88	1609.70
968.04	1630.18
968.20	1499.11
968.37	1593.32
968.53	1595.37
968.69	1613.80
968.85	1710.05
969.02	1673.19
969.18	1746.92
969.34	1617.90
969.51	1662.95
969.67	1716.20
969.83	1542.12
970.00	1685.48
970.16	1646.57
970.32	1667.05
970.48	1728.49
970.65	1597.42
970.81	1558.50
970.97	1718.25
971.14	1650.66
971.30	1710.05
971.46	1585.13
971.63	1626.09
971.79	1671.14
971.95	1630.18
972.11	1591.27
972.28	1673.19
972.44	1724.39
972.60	1525.74
972.76	1662.95
972.93	1531.88
973.09	1728.49
973.25	1658.85
973.42	1615.85
973.58	1650.66
973.74	1710.05
973.90	1656.81
974.07	1673.19
974.23	1599.46
974.39	1695.72
974.55	1615.85
974.72	1601.51
974.88	1552.36
975.04	1669.09
975.20	1591.27
975.37	1656.81
975.53	1589.22
975.69	1638.38
975.85	1609.70
976.01	1697.77
976.18	1603.56
976.34	1617.90
976.50	1716.20
976.66	1705.96
976.83	1634.28
976.99	1574.89
977.15	1636.33
977.31	1540.07
977.47	1632.23
977.64	1605.61
977.80	1636.33
977.96	1683.43
978.12	1665.00
978.29	1648.61
978.45	1570.79
978.61	1507.30
978.77	1716.20
978.93	1628.14
979.10	1660.90
979.26	1675.24
979.42	1603.56
979.58	1519.59
979.74	1581.03
979.91	1656.81
980.07	1540.07
980.23	1617.90
980.39	1607.66
980.55	1638.38
980.71	1603.56
980.88	1511.40
981.04	1607.66
981.20	1650.66
981.36	1660.90
981.52	1587.18
981.68	1607.66
981.85	1697.77
982.01	1621.99
982.17	1611.75
982.33	1673.19
982.49	1675.24
982.65	1638.38
982.82	1632.23
982.98	1574.89
983.14	1591.27
983.30	1638.38
983.46	1779.68
983.62	1640.42
983.79	1533.93
983.95	1605.61
984.11	1527.78
984.27	1613.80
984.43	1652.71
984.59	1570.79
984.75	1652.71
984.91	1558.50
985.08	1615.85
985.24	1519.59
985.40	1535.98
985.56	1607.66
985.72	1732.58
985.88	1716.20
986.04	1574.89
986.20	1519.59
986.37	1599.46
986.53	1556.46
986.69	1671.14
986.85	1619.94
987.01	1607.66
987.17	1650.66
987.33	1630.18
987.49	1591.27
987.65	1613.80
987.82	1531.88
987.98	1566.70
988.14	1621.99
988.30	1632.23
988.46	1597.42
988.62	1656.81
988.78	1585.13
988.94	1650.66
989.10	1611.75
989.26	1607.66
989.42	1578.98
989.59	1617.90
989.75	1603.56
989.91	1683.43
990.07	1552.36
990.23	1615.85
990.39	1601.51
990.55	1626.09
990.71	1599.46
990.87	1669.09
991.03	1669.09
991.19	1587.18
991.35	1599.46
991.51	1566.70
991.67	1609.70
991.83	1597.42
992.00	1630.18
992.16	1626.09
992.32	1689.57
992.48	1660.90
992.64	1662.95
992.80	1650.66
992.96	1593.32
993.12	1591.27
993.28	1624.04
993.44	1607.66
993.60	1630.18
993.76	1630.18
993.92	1697.77
994.08	1638.38
994.24	1621.99
994.40	1591.27
994.56	1636.33
994.72	1578.98
994.88	1605.61
995.04	1621.99
995.20	1611.75
995.36	1581.03
995.52	1669.09
995.68	1626.09
995.84	1597.42
996.00	1695.72
996.16	1632.23
996.32	1560.55
996.48	1619.94
996.64	1624.04
996.80	1654.76
996.96	1669.09
997.12	1634.28
997.28	1527.78
997.44	1558.50
997.60	1591.27
997.76	1615.85
997.92	1654.76
998.08	1662.95
998.24	1578.98
998.40	1634.28
998.56	1662.95
998.72	1515.50
998.88	1611.75
999.04	1589.22
999.20	1732.58
999.36	1576.94
999.52	1691.62
999.68	1619.94
999.84	1716.20
1000.00	1675.24
1000.16	1626.09
1000.32	1566.70
1000.48	1748.97
1000.64	1535.98
1000.80	1535.98
1000.95	1562.60
1001.11	1654.76
1001.27	1597.42
1001.43	1630.18
1001.59	1613.80
1001.75	1597.42
1001.91	1619.94
1002.07	1585.13
1002.23	1587.18
1002.39	1576.94
1002.55	1669.09
1002.71	1550.31
1002.87	1583.08
1003.03	1564.65
1003.19	1544.17
1003.34	1621.99
1003.50	1576.94
1003.66	1671.14
1003.82	1642.47
1003.98	1628.14
1004.14	1650.66
1004.30	1560.55
1004.46	1564.65
1004.62	1636.33
1004.78	1554.41
1004.94	1716.20
1005.09	1728.49
1005.25	1624.04
1005.41	1581.03
1005.57	1652.71
1005.73	1568.74
1005.89	1535.98
1006.05	1621.99
1006.21	1662.95
1006.37	1556.46
1006.52	1570.79
1006.68	1615.85
1006.84	1689.57
1007.00	1617.90
1007.16	1646.57
1007.32	1591.27
1007.48	1601.51
1007.64	1626.09
1007.79	1599.46
1007.95	1597.42
1008.11	1656.81
1008.27	1513.45
1008.43	1642.47
1008.59	1529.83
1008.75	1699.81
1008.91	1578.98
1009.06	1513.45
1009.22	1609.70
1009.38	1585.13
1009.54	1624.04
1009.70	1628.14
1009.86	1599.46
1010.01	1613.80
1010.17	1605.61
1010.33	1705.96
1010.49	1679.33
1010.65	1654.76
1010.81	1533.93
1010.96	1615.85
1011.12	1560.55
1011.28	1581.03
1011.44	1665.00
1011.60	1581.03
1011.76	1636.33
1011.91	1726.44
1012.07	1562.60
1012.23	1515.50
1012.39	1511.40
1012.55	1638.38
1012.71	1568.74
1012.86	1597.42
1013.02	1628.14
1013.18	1660.90
1013.34	1591.27
1013.50	1697.77
1013.65	1667.05
1013.81	1540.07
1013.97	1611.75
1014.13	1677.29
1014.29	1662.95
1014.44	1591.27
1014.60	1611.75
1014.76	1609.70
1014.92	1576.94
1015.07	1607.66
1015.23	1619.94
1015.39	1658.85
1015.55	1587.18
1015.71	1619.94
1015.86	1564.65
1016.02	1638.38
1016.18	1527.78
1016.34	1574.89
1016.49	1613.80
1016.65	1646.57
1016.81	1611.75
1016.97	1652.71
1017.12	1695.72
1017.28	1560.55
1017.44	1544.17
1017.60	1570.79
1017.75	1538.02
1017.91	1601.51
1018.07	1583.08
1018.23	1642.47
1018.38	1591.27
1018.54	1550.31
1018.70	1597.42
1018.86	1548.26
1019.01	1560.55
1019.17	1591.27
1019.33	1730.53
1019.49	1628.14
1019.64	1609.70
1019.80	1626.09
1019.96	1613.80
1020.12	1634.28
1020.27	1480.68
1020.43	1632.23
1020.59	1683.43
1020.74	1671.14
1020.90	1593.32
1021.06	1597.42
1021.22	1650.66
1021.37	1644.52
1021.53	1548.26
1021.69	1611.75
1021.84	1538.02
1022.00	1548.26
1022.16	1632.23
1022.31	1638.38
1022.47	1564.65
1022.63	1644.52
1022.79	1521.64
1022.94	1589.22
1023.10	1705.96
1023.26	1656.81
1023.41	1564.65
1023.57	1566.70
1023.73	1648.61
1023.88	1662.95
1024.04	1548.26
1024.20	1632.23
1024.35	1585.13
1024.51	1607.66
1024.67	1597.42
1024.82	1595.37
1024.98	1548.26
1025.14	1669.09
1025.29	1531.88
1025.45	1681.38
1025.61	1619.94
1025.76	1634.28
1025.92	1542.12
1026.08	1628.14
1026.23	1650.66
1026.39	1642.47
1026.55	1521.64
1026.70	1570.79
1026.86	1615.85
1027.02	1667.05
1027.17	1609.70
1027.33	1597.42
1027.48	1613.80
1027.64	1593.32
1027.80	1552.36
1027.95	1621.99
1028.11	1544.17
1028.27	1591.27
1028.42	1615.85
1028.58	1568.74
1028.73	1607.66
1028.89	1615.85
1029.05	1689.57
1029.20	1675.24
>>>>>End Processed Spectral Data<<<<<
