SpectraSuite Data File
++++++++++++++++++++++++++++++++++++
Date: Fri Jun 02 14:53:27 CEST 2017
User: INFO_000
Dark Spectrum Present: No
Reference Spectrum Present: No
Number of Sampled Component Spectra: 1
Spectrometers: USB4H00879
Integration Time (usec): 80000 (USB4H00879)
Spectra Averaged: 1 (USB4H00879)
Boxcar Smoothing: 0 (USB4H00879)
Correct for Electrical Dark: No (USB4H00879)
Strobe/Lamp Enabled: No (USB4H00879)
Correct for Detector Non-linearity: No (USB4H00879)
Correct for Stray Light: No (USB4H00879)
Number of Pixels in Processed Spectrum: 3648
>>>>>Begin Processed Spectral Data<<<<<
345.13	1308.65
345.34	1308.65
345.56	1308.65
345.78	1343.47
345.99	1292.27
346.21	1718.25
346.42	1730.53
346.64	1638.38
346.86	1773.54
347.07	1619.94
347.29	1775.59
347.50	1638.38
347.72	1656.81
347.94	1738.73
348.15	1601.51
348.37	1632.23
348.59	1740.77
348.80	1640.42
349.02	1748.97
349.23	1669.09
349.45	1732.58
349.67	1791.97
349.88	1648.61
350.10	1789.92
350.31	1728.49
350.53	1656.81
350.75	1802.21
350.96	1710.05
351.18	1753.06
351.39	1730.53
351.61	1701.86
351.82	1714.15
352.04	1804.26
352.26	1746.92
352.47	1726.44
352.69	1751.01
352.90	1605.61
353.12	1697.77
353.34	1693.67
353.55	1710.05
353.77	1732.58
353.98	1771.49
354.20	1605.61
354.41	1767.40
354.63	1757.16
354.85	1867.75
355.06	1748.97
355.28	1531.88
355.49	1757.16
355.71	1759.21
355.92	1671.14
356.14	1777.64
356.35	1679.33
356.57	1699.81
356.79	1761.25
357.00	1656.81
357.22	1744.87
357.43	1650.66
357.65	1800.16
357.86	1658.85
358.08	1710.05
358.29	1791.97
358.51	1753.06
358.72	1732.58
358.94	1726.44
359.16	1722.34
359.37	1673.19
359.59	1773.54
359.80	1730.53
360.02	1730.53
360.23	1685.48
360.45	1787.88
360.66	1638.38
360.88	1609.70
361.09	1642.47
361.31	1716.20
361.52	1775.59
361.74	1767.40
361.95	1812.45
362.17	1765.35
362.38	1779.68
362.60	1759.21
362.81	1640.42
363.03	1570.79
363.24	1687.53
363.46	1804.26
363.67	1771.49
363.89	1726.44
364.10	1732.58
364.32	1734.63
364.53	1789.92
364.75	1603.56
364.96	1732.58
365.18	1675.24
365.39	1695.72
365.61	1703.91
365.82	1845.22
366.04	1718.25
366.25	1624.04
366.47	1662.95
366.68	1665.00
366.90	1628.14
367.11	1722.34
367.33	1769.44
367.54	1726.44
367.76	1658.85
367.97	1761.25
368.19	1695.72
368.40	1683.43
368.62	1681.38
368.83	1658.85
369.05	1726.44
369.26	1613.80
369.48	1658.85
369.69	1675.24
369.91	1718.25
370.12	1673.19
370.33	1779.68
370.55	1609.70
370.76	1656.81
370.98	1744.87
371.19	1748.97
371.41	1699.81
371.62	1779.68
371.84	1677.29
372.05	1824.74
372.27	1695.72
372.48	1681.38
372.69	1675.24
372.91	1757.16
373.12	1765.35
373.34	1687.53
373.55	1705.96
373.77	1765.35
373.98	1667.05
374.20	1773.54
374.41	1796.07
374.62	1642.47
374.84	1693.67
375.05	1648.61
375.27	1638.38
375.48	1697.77
375.70	1695.72
375.91	1777.64
376.12	1892.32
376.34	1613.80
376.55	1671.14
376.77	1806.31
376.98	1636.33
377.19	1609.70
377.41	1619.94
377.62	1658.85
377.84	1771.49
378.05	1857.51
378.27	1654.76
378.48	1808.36
378.69	1863.65
378.91	1826.79
379.12	1636.33
379.34	1748.97
379.55	1769.44
379.76	1738.73
379.98	1703.91
380.19	1697.77
380.41	1716.20
380.62	1802.21
380.83	1751.01
381.05	1669.09
381.26	1800.16
381.47	1632.23
381.69	1740.77
381.90	1748.97
382.12	1695.72
382.33	1720.29
382.54	1687.53
382.76	1683.43
382.97	1722.34
383.19	1630.18
383.40	1748.97
383.61	1675.24
383.83	1591.27
384.04	1650.66
384.25	1695.72
384.47	1769.44
384.68	1724.39
384.89	1730.53
385.11	1593.32
385.32	1689.57
385.54	1613.80
385.75	1683.43
385.96	1695.72
386.18	1681.38
386.39	1791.97
386.60	1636.33
386.82	1693.67
387.03	1667.05
387.24	1722.34
387.46	1740.77
387.67	1791.97
387.88	1726.44
388.10	1636.33
388.31	1667.05
388.52	1726.44
388.74	1744.87
388.95	1697.77
389.16	1753.06
389.38	1642.47
389.59	1761.25
389.80	1736.68
390.02	1708.01
390.23	1824.74
390.44	1699.81
390.66	1703.91
390.87	1599.46
391.08	1740.77
391.30	1830.88
391.51	1732.58
391.72	1744.87
391.94	1740.77
392.15	1724.39
392.36	1673.19
392.58	1621.99
392.79	1626.09
393.00	1722.34
393.22	1744.87
393.43	1720.29
393.64	1859.56
393.85	1759.21
394.07	1675.24
394.28	1675.24
394.49	1689.57
394.71	1728.49
394.92	1759.21
395.13	1656.81
395.35	1638.38
395.56	1650.66
395.77	1720.29
395.98	1722.34
396.20	1691.62
396.41	1753.06
396.62	1828.84
396.84	1662.95
397.05	1714.15
397.26	1650.66
397.47	1810.40
397.69	1716.20
397.90	1943.52
398.11	1691.62
398.32	1591.27
398.54	1677.29
398.75	1740.77
398.96	1783.78
399.18	1841.12
399.39	1722.34
399.60	1693.67
399.81	1761.25
400.03	1646.57
400.24	1961.95
400.45	1720.29
400.66	1689.57
400.88	1636.33
401.09	1894.37
401.30	1630.18
401.51	1814.50
401.73	1724.39
401.94	1781.73
402.15	1646.57
402.36	1693.67
402.58	1720.29
402.79	1744.87
403.00	1718.25
403.21	1722.34
403.43	1787.88
403.64	1763.30
403.85	1689.57
404.06	1779.68
404.27	1656.81
404.49	1673.19
404.70	1685.48
404.91	1738.73
405.12	1767.40
405.34	1726.44
405.55	1794.02
405.76	1689.57
405.97	1697.77
406.19	1826.79
406.40	1568.74
406.61	1716.20
406.82	1732.58
407.03	1662.95
407.25	1689.57
407.46	1814.50
407.67	1800.16
407.88	1742.82
408.09	1722.34
408.31	1712.10
408.52	1730.53
408.73	1708.01
408.94	1581.03
409.15	1726.44
409.37	1757.16
409.58	1693.67
409.79	1714.15
410.00	1771.49
410.21	1689.57
410.43	1712.10
410.64	1617.90
410.85	1744.87
411.06	1712.10
411.27	1726.44
411.48	1738.73
411.70	1650.66
411.91	1687.53
412.12	1722.34
412.33	1810.40
412.54	1658.85
412.76	1710.05
412.97	1794.02
413.18	1705.96
413.39	1779.68
413.60	1814.50
413.81	1691.62
414.03	1673.19
414.24	1757.16
414.45	1902.56
414.66	1654.76
414.87	1656.81
415.08	1753.06
415.30	1751.01
415.51	1726.44
415.72	1769.44
415.93	1630.18
416.14	1720.29
416.35	1767.40
416.56	1677.29
416.78	1699.81
416.99	1753.06
417.20	1773.54
417.41	1798.12
417.62	1685.48
417.83	1757.16
418.04	1705.96
418.26	1714.15
418.47	1732.58
418.68	1675.24
418.89	1740.77
419.10	1896.42
419.31	1748.97
419.52	1798.12
419.73	1687.53
419.95	1765.35
420.16	1724.39
420.37	1615.85
420.58	1744.87
420.79	1624.04
421.00	1609.70
421.21	1767.40
421.42	1570.79
421.63	1701.86
421.85	1667.05
422.06	1705.96
422.27	1693.67
422.48	1687.53
422.69	1662.95
422.90	1654.76
423.11	1578.98
423.32	1689.57
423.53	1773.54
423.75	1658.85
423.96	1716.20
424.17	1785.83
424.38	1804.26
424.59	1658.85
424.80	1685.48
425.01	1738.73
425.22	1615.85
425.43	1736.68
425.64	1689.57
425.85	1816.55
426.06	1710.05
426.28	1728.49
426.49	1609.70
426.70	1558.50
426.91	1761.25
427.12	1734.63
427.33	1683.43
427.54	1687.53
427.75	1665.00
427.96	1705.96
428.17	1763.30
428.38	1712.10
428.59	1728.49
428.80	1671.14
429.01	1665.00
429.23	1736.68
429.44	1673.19
429.65	1732.58
429.86	1632.23
430.07	1724.39
430.28	1703.91
430.49	1728.49
430.70	1738.73
430.91	1785.83
431.12	1619.94
431.33	1740.77
431.54	1765.35
431.75	1716.20
431.96	1732.58
432.17	1716.20
432.38	1683.43
432.59	1855.46
432.80	1779.68
433.01	1716.20
433.22	1759.21
433.43	1699.81
433.64	1777.64
433.85	1755.11
434.06	1693.67
434.27	1619.94
434.49	1654.76
434.70	1712.10
434.91	1671.14
435.12	1673.19
435.33	1677.29
435.54	1710.05
435.75	1638.38
435.96	1687.53
436.17	1689.57
436.38	1685.48
436.59	1716.20
436.80	1701.86
437.01	1769.44
437.22	1712.10
437.43	1679.33
437.64	1656.81
437.85	1796.07
438.06	1720.29
438.27	1687.53
438.48	1695.72
438.69	1777.64
438.90	1691.62
439.11	1646.57
439.32	1785.83
439.53	1677.29
439.74	1710.05
439.95	1665.00
440.16	1742.82
440.37	1742.82
440.57	1609.70
440.78	1697.77
440.99	1693.67
441.20	1669.09
441.41	1615.85
441.62	1650.66
441.83	1654.76
442.04	1593.32
442.25	1558.50
442.46	1730.53
442.67	1693.67
442.88	1810.40
443.09	1642.47
443.30	1640.42
443.51	1671.14
443.72	1687.53
443.93	1675.24
444.14	1781.73
444.35	1656.81
444.56	1632.23
444.77	1673.19
444.98	1742.82
445.19	1748.97
445.40	1687.53
445.61	1587.18
445.81	1640.42
446.02	1728.49
446.23	1673.19
446.44	1636.33
446.65	1751.01
446.86	1726.44
447.07	1869.80
447.28	1699.81
447.49	1769.44
447.70	1671.14
447.91	1769.44
448.12	1691.62
448.33	1724.39
448.54	1697.77
448.74	1679.33
448.95	1669.09
449.16	1675.24
449.37	1724.39
449.58	1669.09
449.79	1755.11
450.00	1708.01
450.21	1632.23
450.42	1626.09
450.63	1628.14
450.84	1656.81
451.05	1720.29
451.25	1632.23
451.46	1570.79
451.67	1818.60
451.88	1753.06
452.09	1673.19
452.30	1626.09
452.51	1662.95
452.72	1765.35
452.93	1779.68
453.13	1628.14
453.34	1691.62
453.55	1634.28
453.76	1658.85
453.97	1697.77
454.18	1617.90
454.39	1644.52
454.60	1683.43
454.81	1734.63
455.01	1738.73
455.22	1578.98
455.43	1699.81
455.64	1724.39
455.85	1671.14
456.06	1689.57
456.27	1773.54
456.48	1699.81
456.68	1617.90
456.89	1740.77
457.10	1656.81
457.31	1679.33
457.52	1720.29
457.73	1738.73
457.94	1695.72
458.14	1562.60
458.35	1761.25
458.56	1656.81
458.77	1662.95
458.98	1693.67
459.19	1687.53
459.39	1738.73
459.60	1697.77
459.81	1759.21
460.02	1656.81
460.23	1669.09
460.44	1644.52
460.65	1679.33
460.85	1671.14
461.06	1617.90
461.27	1634.28
461.48	1718.25
461.69	1687.53
461.89	1611.75
462.10	1708.01
462.31	1605.61
462.52	1675.24
462.73	1617.90
462.94	1683.43
463.14	1712.10
463.35	1683.43
463.56	1781.73
463.77	1812.45
463.98	1658.85
464.18	1624.04
464.39	1796.07
464.60	1642.47
464.81	1570.79
465.02	1667.05
465.23	1744.87
465.43	1705.96
465.64	1681.38
465.85	1689.57
466.06	1689.57
466.27	1724.39
466.47	1718.25
466.68	1693.67
466.89	1708.01
467.10	1624.04
467.30	1658.85
467.51	1677.29
467.72	1806.31
467.93	1705.96
468.14	1687.53
468.34	1667.05
468.55	1720.29
468.76	1681.38
468.97	1648.61
469.17	1724.39
469.38	1753.06
469.59	1683.43
469.80	1714.15
470.01	1705.96
470.21	1671.14
470.42	1714.15
470.63	1634.28
470.84	1744.87
471.04	1679.33
471.25	1873.89
471.46	1712.10
471.67	1728.49
471.87	1681.38
472.08	1738.73
472.29	1710.05
472.50	1699.81
472.70	1681.38
472.91	1642.47
473.12	1679.33
473.33	1708.01
473.53	1789.92
473.74	1673.19
473.95	1621.99
474.16	1677.29
474.36	1646.57
474.57	1701.86
474.78	1658.85
474.99	1736.68
475.19	1753.06
475.40	1720.29
475.61	1751.01
475.81	1718.25
476.02	1650.66
476.23	1748.97
476.44	1705.96
476.64	1673.19
476.85	1619.94
477.06	1624.04
477.27	1708.01
477.47	1736.68
477.68	1751.01
477.89	1748.97
478.09	1689.57
478.30	1716.20
478.51	1662.95
478.71	1667.05
478.92	1734.63
479.13	1699.81
479.34	1626.09
479.54	1751.01
479.75	1699.81
479.96	1722.34
480.16	1724.39
480.37	1685.48
480.58	1691.62
480.78	1691.62
480.99	1595.37
481.20	1724.39
481.41	1693.67
481.61	1705.96
481.82	1787.88
482.03	1630.18
482.23	1681.38
482.44	1789.92
482.65	1927.14
482.85	1734.63
483.06	1722.34
483.27	1697.77
483.47	1769.44
483.68	1681.38
483.89	1701.86
484.09	1785.83
484.30	1679.33
484.51	1740.77
484.71	1628.14
484.92	1677.29
485.13	1716.20
485.33	1658.85
485.54	1691.62
485.75	1740.77
485.95	1761.25
486.16	1689.57
486.37	1730.53
486.57	1650.66
486.78	1691.62
486.98	1671.14
487.19	1687.53
487.40	1691.62
487.60	1718.25
487.81	1658.85
488.02	1574.89
488.22	1705.96
488.43	1763.30
488.64	1615.85
488.84	1589.22
489.05	1767.40
489.25	1630.18
489.46	1712.10
489.67	1720.29
489.87	1720.29
490.08	1720.29
490.29	1587.18
490.49	1757.16
490.70	1728.49
490.90	1626.09
491.11	1693.67
491.32	1683.43
491.52	1638.38
491.73	1669.09
491.94	1691.62
492.14	1597.42
492.35	1675.24
492.55	1777.64
492.76	1650.66
492.97	1632.23
493.17	1755.11
493.38	1703.91
493.58	1812.45
493.79	1746.92
494.00	1687.53
494.20	1624.04
494.41	1755.11
494.61	1761.25
494.82	1699.81
495.02	1609.70
495.23	1671.14
495.44	1720.29
495.64	1748.97
495.85	1646.57
496.05	1695.72
496.26	1757.16
496.47	1746.92
496.67	1673.19
496.88	1724.39
497.08	1671.14
497.29	1658.85
497.49	1683.43
497.70	1679.33
497.91	1636.33
498.11	1822.69
498.32	1687.53
498.52	1708.01
498.73	1677.29
498.93	1751.01
499.14	1728.49
499.34	1748.97
499.55	1781.73
499.76	1650.66
499.96	1742.82
500.17	1693.67
500.37	1802.21
500.58	1712.10
500.78	1720.29
500.99	1705.96
501.19	1652.71
501.40	1767.40
501.60	1632.23
501.81	1716.20
502.02	1689.57
502.22	1648.61
502.43	1755.11
502.63	1855.46
502.84	1748.97
503.04	1734.63
503.25	1759.21
503.45	1703.91
503.66	1658.85
503.86	1724.39
504.07	1734.63
504.27	1683.43
504.48	1683.43
504.68	1646.57
504.89	1839.08
505.09	1601.51
505.30	1695.72
505.50	1724.39
505.71	1697.77
505.91	1712.10
506.12	1667.05
506.32	1673.19
506.53	1617.90
506.73	1687.53
506.94	1693.67
507.14	1665.00
507.35	1794.02
507.55	1662.95
507.76	1746.92
507.96	1581.03
508.17	1865.70
508.37	1599.46
508.58	1730.53
508.78	1728.49
508.99	1806.31
509.19	1703.91
509.40	1654.76
509.60	1771.49
509.81	1732.58
510.01	1738.73
510.22	1720.29
510.42	1701.86
510.63	1728.49
510.83	1624.04
511.04	1658.85
511.24	1806.31
511.44	1726.44
511.65	1572.84
511.85	1691.62
512.06	1697.77
512.26	1699.81
512.47	1724.39
512.67	1609.70
512.88	1728.49
513.08	1679.33
513.29	1728.49
513.49	1667.05
513.69	1658.85
513.90	1689.57
514.10	1785.83
514.31	1728.49
514.51	1644.52
514.72	1699.81
514.92	1669.09
515.13	1654.76
515.33	1687.53
515.53	1685.48
515.74	1751.01
515.94	1695.72
516.15	1855.46
516.35	1554.41
516.56	1644.52
516.76	1578.98
516.96	1646.57
517.17	1738.73
517.37	1697.77
517.58	1689.57
517.78	1660.90
517.99	1783.78
518.19	1789.92
518.39	1710.05
518.60	1724.39
518.80	1783.78
519.01	1796.07
519.21	1646.57
519.41	1730.53
519.62	1630.18
519.82	1718.25
520.03	1685.48
520.23	1660.90
520.43	1681.38
520.64	1732.58
520.84	1773.54
521.05	1613.80
521.25	1794.02
521.45	1748.97
521.66	1689.57
521.86	1757.16
522.07	1728.49
522.27	1683.43
522.47	1611.75
522.68	1650.66
522.88	1603.56
523.08	1716.20
523.29	1554.41
523.49	1636.33
523.70	1669.09
523.90	1681.38
524.10	1671.14
524.31	1667.05
524.51	1583.08
524.71	1687.53
524.92	1724.39
525.12	1609.70
525.33	1746.92
525.53	1697.77
525.73	1763.30
525.94	1703.91
526.14	1769.44
526.34	1611.75
526.55	1642.47
526.75	1755.11
526.95	1822.69
527.16	1667.05
527.36	1728.49
527.56	1726.44
527.77	1630.18
527.97	1636.33
528.17	1763.30
528.38	1699.81
528.58	1705.96
528.78	1695.72
528.99	1624.04
529.19	1728.49
529.39	1634.28
529.60	1621.99
529.80	1652.71
530.00	1667.05
530.21	1763.30
530.41	1701.86
530.61	1779.68
530.82	1642.47
531.02	1691.62
531.22	1728.49
531.43	1691.62
531.63	1679.33
531.83	1716.20
532.04	1720.29
532.24	1687.53
532.44	1650.66
532.64	1767.40
532.85	1626.09
533.05	1712.10
533.25	1607.66
533.46	1638.38
533.66	1695.72
533.86	1687.53
534.07	1814.50
534.27	1742.82
534.47	1785.83
534.67	1660.90
534.88	1712.10
535.08	1761.25
535.28	1720.29
535.49	1652.71
535.69	1818.60
535.89	1812.45
536.09	1816.55
536.30	1724.39
536.50	1712.10
536.70	1732.58
536.91	1734.63
537.11	1753.06
537.31	1751.01
537.51	1675.24
537.72	1722.34
537.92	1757.16
538.12	1722.34
538.32	1732.58
538.53	1683.43
538.73	1638.38
538.93	1697.77
539.13	1763.30
539.34	1716.20
539.54	1583.08
539.74	1658.85
539.94	1658.85
540.15	1683.43
540.35	1681.38
540.55	1587.18
540.75	1681.38
540.96	1679.33
541.16	1732.58
541.36	1656.81
541.56	1728.49
541.77	1703.91
541.97	1673.19
542.17	1640.42
542.37	1757.16
542.58	1691.62
542.78	1777.64
542.98	1716.20
543.18	1673.19
543.38	1794.02
543.59	1658.85
543.79	1648.61
543.99	1667.05
544.19	1650.66
544.40	1804.26
544.60	1640.42
544.80	1626.09
545.00	1662.95
545.20	1744.87
545.41	1634.28
545.61	1689.57
545.81	1677.29
546.01	1712.10
546.21	1812.45
546.42	1673.19
546.62	1818.60
546.82	1691.62
547.02	1650.66
547.22	1691.62
547.43	1834.98
547.63	1787.88
547.83	1626.09
548.03	1650.66
548.23	1781.73
548.44	1650.66
548.64	1687.53
548.84	1658.85
549.04	1583.08
549.24	1820.64
549.45	1941.47
549.65	1679.33
549.85	1730.53
550.05	1697.77
550.25	1589.22
550.45	1834.98
550.66	1681.38
550.86	1671.14
551.06	1761.25
551.26	1632.23
551.46	1738.73
551.66	1736.68
551.87	1716.20
552.07	1701.86
552.27	1697.77
552.47	1765.35
552.67	1722.34
552.87	1677.29
553.07	1708.01
553.28	1708.01
553.48	1705.96
553.68	1552.36
553.88	1742.82
554.08	1693.67
554.28	1597.42
554.48	1642.47
554.69	1705.96
554.89	1658.85
555.09	1685.48
555.29	1585.13
555.49	1632.23
555.69	1771.49
555.89	1658.85
556.10	1740.77
556.30	1650.66
556.50	1703.91
556.70	1765.35
556.90	1683.43
557.10	1681.38
557.30	1667.05
557.50	1597.42
557.70	1675.24
557.91	1753.06
558.11	1671.14
558.31	1779.68
558.51	1697.77
558.71	1773.54
558.91	1691.62
559.11	1677.29
559.31	1624.04
559.51	1667.05
559.72	1798.12
559.92	1726.44
560.12	1638.38
560.32	1806.31
560.52	1744.87
560.72	1683.43
560.92	1673.19
561.12	1761.25
561.32	1685.48
561.52	1679.33
561.72	1820.64
561.93	1765.35
562.13	1626.09
562.33	1705.96
562.53	1695.72
562.73	1675.24
562.93	1703.91
563.13	1642.47
563.33	1794.02
563.53	1701.86
563.73	1724.39
563.93	1822.69
564.13	1808.36
564.33	1675.24
564.53	1751.01
564.74	1691.62
564.94	1679.33
565.14	1744.87
565.34	1744.87
565.54	1665.00
565.74	1642.47
565.94	1656.81
566.14	1677.29
566.34	1654.76
566.54	1703.91
566.74	1787.88
566.94	1714.15
567.14	1740.77
567.34	1687.53
567.54	1783.78
567.74	1759.21
567.94	1699.81
568.14	1662.95
568.34	1828.84
568.54	1593.32
568.74	1751.01
568.94	1699.81
569.14	1746.92
569.34	1669.09
569.54	1548.26
569.75	1699.81
569.95	1691.62
570.15	1746.92
570.35	1771.49
570.55	1699.81
570.75	1675.24
570.95	1632.23
571.15	1740.77
571.35	1673.19
571.55	1665.00
571.75	1687.53
571.95	1681.38
572.15	1695.72
572.35	1761.25
572.55	1716.20
572.75	1730.53
572.95	1556.46
573.15	1685.48
573.35	1744.87
573.55	1744.87
573.75	1628.14
573.95	1867.75
574.15	1683.43
574.35	1632.23
574.55	1681.38
574.75	1673.19
574.95	1685.48
575.15	1607.66
575.34	1683.43
575.54	1730.53
575.74	1656.81
575.94	1716.20
576.14	1591.27
576.34	1732.58
576.54	1628.14
576.74	1699.81
576.94	1662.95
577.14	1677.29
577.34	1787.88
577.54	1656.81
577.74	1716.20
577.94	1650.66
578.14	1746.92
578.34	1755.11
578.54	1531.88
578.74	1601.51
578.94	1748.97
579.14	1751.01
579.34	1613.80
579.54	1687.53
579.74	1656.81
579.94	1679.33
580.13	1728.49
580.33	1716.20
580.53	1640.42
580.73	1705.96
580.93	1740.77
581.13	1724.39
581.33	1726.44
581.53	1615.85
581.73	1718.25
581.93	1628.14
582.13	1734.63
582.33	1753.06
582.53	1708.01
582.73	1705.96
582.92	1644.52
583.12	1705.96
583.32	1710.05
583.52	1683.43
583.72	1869.80
583.92	1834.98
584.12	1732.58
584.32	1683.43
584.52	1630.18
584.72	1683.43
584.92	1652.71
585.11	1689.57
585.31	1761.25
585.51	1634.28
585.71	1785.83
585.91	1703.91
586.11	1656.81
586.31	1736.68
586.51	1669.09
586.71	1744.87
586.91	1634.28
587.10	1789.92
587.30	1787.88
587.50	1677.29
587.70	1605.61
587.90	1695.72
588.10	1687.53
588.30	1681.38
588.50	1685.48
588.69	1740.77
588.89	1691.62
589.09	1671.14
589.29	1613.80
589.49	1660.90
589.69	1595.37
589.89	1699.81
590.08	1681.38
590.28	1691.62
590.48	1667.05
590.68	1681.38
590.88	1646.57
591.08	1679.33
591.28	1683.43
591.47	1665.00
591.67	1626.09
591.87	1689.57
592.07	1828.84
592.27	1544.17
592.47	1621.99
592.67	1683.43
592.86	1617.90
593.06	1689.57
593.26	1730.53
593.46	1724.39
593.66	1615.85
593.86	1796.07
594.05	1732.58
594.25	1736.68
594.45	1624.04
594.65	1855.46
594.85	1720.29
595.05	1675.24
595.24	1687.53
595.44	1734.63
595.64	1679.33
595.84	1701.86
596.04	1687.53
596.23	1650.66
596.43	1720.29
596.63	1703.91
596.83	1667.05
597.03	1787.88
597.22	1693.67
597.42	1708.01
597.62	1683.43
597.82	1732.58
598.02	1746.92
598.21	1699.81
598.41	1683.43
598.61	1673.19
598.81	1665.00
599.01	1722.34
599.20	1716.20
599.40	1587.18
599.60	1701.86
599.80	1679.33
600.00	1830.88
600.19	1726.44
600.39	1728.49
600.59	1716.20
600.79	1822.69
600.98	1722.34
601.18	1742.82
601.38	1695.72
601.58	1642.47
601.78	1732.58
601.97	1746.92
602.17	1787.88
602.37	1640.42
602.57	1675.24
602.76	1720.29
602.96	1617.90
603.16	1546.22
603.36	1708.01
603.55	1736.68
603.75	1699.81
603.95	1699.81
604.15	1806.31
604.34	1697.77
604.54	1779.68
604.74	1775.59
604.94	1728.49
605.13	1667.05
605.33	1673.19
605.53	1695.72
605.73	1728.49
605.92	1671.14
606.12	1777.64
606.32	1798.12
606.52	1757.16
606.71	1730.53
606.91	1677.29
607.11	1638.38
607.30	1673.19
607.50	1685.48
607.70	1767.40
607.90	1677.29
608.09	1667.05
608.29	1755.11
608.49	1720.29
608.68	1658.85
608.88	1751.01
609.08	1673.19
609.28	1669.09
609.47	1638.38
609.67	1773.54
609.87	1708.01
610.06	1753.06
610.26	1705.96
610.46	1773.54
610.66	1689.57
610.85	1679.33
611.05	1757.16
611.25	1689.57
611.44	1634.28
611.64	1716.20
611.84	1626.09
612.03	1650.66
612.23	1667.05
612.43	1687.53
612.62	1673.19
612.82	1716.20
613.02	1775.59
613.21	1765.35
613.41	1630.18
613.61	1712.10
613.80	1673.19
614.00	1708.01
614.20	1757.16
614.39	1699.81
614.59	1798.12
614.79	1660.90
614.98	1693.67
615.18	1687.53
615.38	1724.39
615.57	1726.44
615.77	1849.32
615.97	1634.28
616.16	1624.04
616.36	1728.49
616.56	1677.29
616.75	1714.15
616.95	1630.18
617.15	1814.50
617.34	1675.24
617.54	1787.88
617.74	1822.69
617.93	1800.16
618.13	1697.77
618.32	1732.58
618.52	1673.19
618.72	1632.23
618.91	1740.77
619.11	1777.64
619.31	1746.92
619.50	1691.62
619.70	1630.18
619.90	1720.29
620.09	1708.01
620.29	1669.09
620.48	1781.73
620.68	1738.73
620.88	1769.44
621.07	1773.54
621.27	1746.92
621.46	1761.25
621.66	1730.53
621.86	1687.53
622.05	1652.71
622.25	1781.73
622.44	1681.38
622.64	1732.58
622.84	1619.94
623.03	1589.22
623.23	1714.15
623.42	1744.87
623.62	1757.16
623.82	1839.08
624.01	1689.57
624.21	1708.01
624.40	1857.51
624.60	1673.19
624.80	1699.81
624.99	1703.91
625.19	1736.68
625.38	1765.35
625.58	1642.47
625.77	1683.43
625.97	1759.21
626.17	1646.57
626.36	1697.77
626.56	1724.39
626.75	1603.56
626.95	1724.39
627.14	1712.10
627.34	1624.04
627.54	1757.16
627.73	1763.30
627.93	1802.21
628.12	1665.00
628.32	1710.05
628.51	1665.00
628.71	1771.49
628.90	1744.87
629.10	1673.19
629.30	1736.68
629.49	1726.44
629.69	1654.76
629.88	1593.32
630.08	1783.78
630.27	1894.37
630.47	1769.44
630.66	1679.33
630.86	1681.38
631.05	1751.01
631.25	1708.01
631.44	1767.40
631.64	1624.04
631.84	1685.48
632.03	1771.49
632.23	1705.96
632.42	1773.54
632.62	1671.14
632.81	1708.01
633.01	1712.10
633.20	1863.65
633.40	1812.45
633.59	1744.87
633.79	1662.95
633.98	1685.48
634.18	1720.29
634.37	1814.50
634.57	1765.35
634.76	1677.29
634.96	1771.49
635.15	1791.97
635.35	1718.25
635.54	1812.45
635.74	1662.95
635.93	1624.04
636.13	1687.53
636.32	1708.01
636.52	1714.15
636.71	1656.81
636.91	1695.72
637.10	1705.96
637.30	1732.58
637.49	1617.90
637.69	1716.20
637.88	1710.05
638.08	1699.81
638.27	1697.77
638.46	1691.62
638.66	1689.57
638.85	1613.80
639.05	1728.49
639.24	1781.73
639.44	1716.20
639.63	1654.76
639.83	1746.92
640.02	1740.77
640.22	1728.49
640.41	1632.23
640.61	1728.49
640.80	1665.00
640.99	1740.77
641.19	1812.45
641.38	1724.39
641.58	1714.15
641.77	1679.33
641.97	1613.80
642.16	1728.49
642.36	1748.97
642.55	1761.25
642.74	1787.88
642.94	1662.95
643.13	1603.56
643.33	1722.34
643.52	1740.77
643.72	1763.30
643.91	1693.67
644.10	1779.68
644.30	1736.68
644.49	1744.87
644.69	1689.57
644.88	1607.66
645.08	1724.39
645.27	1705.96
645.46	1656.81
645.66	1763.30
645.85	1708.01
646.05	1736.68
646.24	1650.66
646.43	1662.95
646.63	1734.63
646.82	1683.43
647.02	1759.21
647.21	1800.16
647.40	1736.68
647.60	1675.24
647.79	1755.11
647.99	1716.20
648.18	1728.49
648.37	1744.87
648.57	1771.49
648.76	1755.11
648.96	1681.38
649.15	1683.43
649.34	1740.77
649.54	1722.34
649.73	1691.62
649.92	1646.57
650.12	1703.91
650.31	1748.97
650.51	1882.08
650.70	1746.92
650.89	1658.85
651.09	1720.29
651.28	1794.02
651.47	1662.95
651.67	1705.96
651.86	1785.83
652.06	1656.81
652.25	1699.81
652.44	1576.94
652.64	1771.49
652.83	1675.24
653.02	1691.62
653.22	1806.31
653.41	1658.85
653.60	1615.85
653.80	1646.57
653.99	1658.85
654.18	1630.18
654.38	1615.85
654.57	1742.82
654.76	1722.34
654.96	1634.28
655.15	1644.52
655.34	1746.92
655.54	1687.53
655.73	1695.72
655.92	1640.42
656.12	1642.47
656.31	1730.53
656.50	1783.78
656.70	1650.66
656.89	1689.57
657.08	1667.05
657.28	1789.92
657.47	1693.67
657.66	1671.14
657.86	1611.75
658.05	1697.77
658.24	1732.58
658.43	1728.49
658.63	1628.14
658.82	1710.05
659.01	1777.64
659.21	1818.60
659.40	1708.01
659.59	1708.01
659.79	1712.10
659.98	1761.25
660.17	1675.24
660.36	1830.88
660.56	1748.97
660.75	1675.24
660.94	1634.28
661.14	1665.00
661.33	1677.29
661.52	1720.29
661.71	1753.06
661.91	1656.81
662.10	1675.24
662.29	1638.38
662.49	1679.33
662.68	1619.94
662.87	1619.94
663.06	1736.68
663.26	1671.14
663.45	1826.79
663.64	1691.62
663.83	1689.57
664.03	1794.02
664.22	1701.86
664.41	1771.49
664.60	1751.01
664.80	1654.76
664.99	1851.36
665.18	1785.83
665.37	1671.14
665.57	1830.88
665.76	1693.67
665.95	1716.20
666.14	1748.97
666.34	1650.66
666.53	1705.96
666.72	1621.99
666.91	1640.42
667.11	1716.20
667.30	1806.31
667.49	1738.73
667.68	1769.44
667.87	1718.25
668.07	1740.77
668.26	1603.56
668.45	1578.98
668.64	1732.58
668.84	1765.35
669.03	1671.14
669.22	1837.03
669.41	1699.81
669.60	1714.15
669.80	1818.60
669.99	1683.43
670.18	1732.58
670.37	1798.12
670.57	1708.01
670.76	1654.76
670.95	1818.60
671.14	1683.43
671.33	1656.81
671.53	1724.39
671.72	1789.92
671.91	1845.22
672.10	1658.85
672.29	1718.25
672.48	1699.81
672.68	1734.63
672.87	1679.33
673.06	1798.12
673.25	1691.62
673.44	1697.77
673.64	1634.28
673.83	1736.68
674.02	1609.70
674.21	1744.87
674.40	1724.39
674.59	1738.73
674.79	1705.96
674.98	1753.06
675.17	1738.73
675.36	1632.23
675.55	1630.18
675.74	1634.28
675.94	1753.06
676.13	1767.40
676.32	1599.46
676.51	1726.44
676.70	1560.55
676.89	1679.33
677.08	1689.57
677.28	1859.56
677.47	1654.76
677.66	1734.63
677.85	1699.81
678.04	1705.96
678.23	1806.31
678.42	1662.95
678.62	1648.61
678.81	1712.10
679.00	1679.33
679.19	1734.63
679.38	1748.97
679.57	1730.53
679.76	1703.91
679.96	1695.72
680.15	1791.97
680.34	1652.71
680.53	1783.78
680.72	1779.68
680.91	1650.66
681.10	1771.49
681.29	1699.81
681.48	1712.10
681.68	1689.57
681.87	1773.54
682.06	1685.48
682.25	1789.92
682.44	1660.90
682.63	1808.36
682.82	1570.79
683.01	1779.68
683.20	1732.58
683.39	1787.88
683.59	1658.85
683.78	1660.90
683.97	1691.62
684.16	1650.66
684.35	1652.71
684.54	1660.90
684.73	1642.47
684.92	1650.66
685.11	1830.88
685.30	1767.40
685.49	1652.71
685.69	1818.60
685.88	1693.67
686.07	1658.85
686.26	1693.67
686.45	1650.66
686.64	1787.88
686.83	1732.58
687.02	1732.58
687.21	1761.25
687.40	1703.91
687.59	1839.08
687.78	1773.54
687.97	1800.16
688.16	1689.57
688.35	1675.24
688.54	1744.87
688.74	1576.94
688.93	1726.44
689.12	1644.52
689.31	1920.99
689.50	1722.34
689.69	1687.53
689.88	1714.15
690.07	1753.06
690.26	1767.40
690.45	1697.77
690.64	1703.91
690.83	1652.71
691.02	1705.96
691.21	1669.09
691.40	1640.42
691.59	1640.42
691.78	1691.62
691.97	1638.38
692.16	1708.01
692.35	1736.68
692.54	1771.49
692.73	1605.61
692.92	1761.25
693.11	1720.29
693.30	1800.16
693.49	1593.32
693.68	1708.01
693.87	1718.25
694.06	1609.70
694.25	1701.86
694.44	1732.58
694.63	1687.53
694.82	1632.23
695.01	1697.77
695.20	1728.49
695.39	1597.42
695.58	1748.97
695.77	1687.53
695.96	1673.19
696.15	1699.81
696.34	1722.34
696.53	1667.05
696.72	1683.43
696.91	1716.20
697.10	1703.91
697.29	1710.05
697.48	1771.49
697.67	1748.97
697.86	1591.27
698.05	1621.99
698.24	1740.77
698.43	1640.42
698.62	1722.34
698.81	1683.43
699.00	1722.34
699.19	1765.35
699.38	1732.58
699.57	1720.29
699.76	1773.54
699.95	1615.85
700.14	1611.75
700.32	1644.52
700.51	1744.87
700.70	1710.05
700.89	1748.97
701.08	1746.92
701.27	1640.42
701.46	1888.23
701.65	1685.48
701.84	1646.57
702.03	1662.95
702.22	1716.20
702.41	1816.55
702.60	1814.50
702.79	1716.20
702.98	1640.42
703.17	1818.60
703.35	1710.05
703.54	1736.68
703.73	1718.25
703.92	1677.29
704.11	1585.13
704.30	1777.64
704.49	1777.64
704.68	1615.85
704.87	1730.53
705.06	1826.79
705.25	1601.51
705.43	1714.15
705.62	1644.52
705.81	1783.78
706.00	1742.82
706.19	1720.29
706.38	1671.14
706.57	1794.02
706.76	1697.77
706.95	1740.77
707.14	1742.82
707.32	1646.57
707.51	1656.81
707.70	1650.66
707.89	1724.39
708.08	1757.16
708.27	1693.67
708.46	1708.01
708.65	1650.66
708.84	1746.92
709.02	1601.51
709.21	1642.47
709.40	1728.49
709.59	1695.72
709.78	1654.76
709.97	1626.09
710.16	1714.15
710.34	1742.82
710.53	1734.63
710.72	1617.90
710.91	1761.25
711.10	1667.05
711.29	1654.76
711.48	1847.27
711.66	1693.67
711.85	1632.23
712.04	1771.49
712.23	1732.58
712.42	1765.35
712.61	1769.44
712.80	1601.51
712.98	1642.47
713.17	1671.14
713.36	1611.75
713.55	1732.58
713.74	1728.49
713.93	1791.97
714.11	1656.81
714.30	1542.12
714.49	1810.40
714.68	1611.75
714.87	1605.61
715.06	1759.21
715.24	1730.53
715.43	1665.00
715.62	1671.14
715.81	1720.29
716.00	1703.91
716.18	1685.48
716.37	1765.35
716.56	1646.57
716.75	1693.67
716.94	1683.43
717.12	1757.16
717.31	1685.48
717.50	1687.53
717.69	1609.70
717.88	1683.43
718.06	1646.57
718.25	1757.16
718.44	1722.34
718.63	1818.60
718.82	1619.94
719.00	1734.63
719.19	1820.64
719.38	1644.52
719.57	1665.00
719.76	1671.14
719.94	1675.24
720.13	1722.34
720.32	1691.62
720.51	1720.29
720.69	1794.02
720.88	1712.10
721.07	1695.72
721.26	1757.16
721.44	1732.58
721.63	1730.53
721.82	1710.05
722.01	1693.67
722.20	1632.23
722.38	1746.92
722.57	1642.47
722.76	1615.85
722.95	1673.19
723.13	1658.85
723.32	1691.62
723.51	1683.43
723.70	1773.54
723.88	1783.78
724.07	1611.75
724.26	1724.39
724.44	1673.19
724.63	1761.25
724.82	1675.24
725.01	1624.04
725.19	1595.37
725.38	1656.81
725.57	1665.00
725.76	1759.21
725.94	1665.00
726.13	1712.10
726.32	1689.57
726.51	1652.71
726.69	1638.38
726.88	1796.07
727.07	1744.87
727.25	1652.71
727.44	1730.53
727.63	1681.38
727.82	1667.05
728.00	1726.44
728.19	1685.48
728.38	1626.09
728.56	1632.23
728.75	1738.73
728.94	1798.12
729.12	1710.05
729.31	1773.54
729.50	1685.48
729.69	1714.15
729.87	1650.66
730.06	1642.47
730.25	1710.05
730.43	1767.40
730.62	1708.01
730.81	1683.43
730.99	1781.73
731.18	1691.62
731.37	1617.90
731.55	1679.33
731.74	1716.20
731.93	1689.57
732.11	1753.06
732.30	1607.66
732.49	1695.72
732.67	1636.33
732.86	1601.51
733.05	1583.08
733.23	1771.49
733.42	1648.61
733.61	1716.20
733.79	1660.90
733.98	1755.11
734.17	1708.01
734.35	1722.34
734.54	1849.32
734.73	1730.53
734.91	1613.80
735.10	1716.20
735.29	1763.30
735.47	1621.99
735.66	1689.57
735.84	1802.21
736.03	1660.90
736.22	1736.68
736.40	1708.01
736.59	1556.46
736.78	1679.33
736.96	1708.01
737.15	1669.09
737.33	1765.35
737.52	1642.47
737.71	1691.62
737.89	1675.24
738.08	1712.10
738.27	1791.97
738.45	1673.19
738.64	1662.95
738.82	1683.43
739.01	1689.57
739.20	1699.81
739.38	1703.91
739.57	1773.54
739.75	1736.68
739.94	1724.39
740.13	1589.22
740.31	1673.19
740.50	1675.24
740.68	1630.18
740.87	1671.14
741.06	1755.11
741.24	1705.96
741.43	1640.42
741.61	1595.37
741.80	1705.96
741.99	1621.99
742.17	1656.81
742.36	1603.56
742.54	1656.81
742.73	1724.39
742.91	1630.18
743.10	1656.81
743.29	1642.47
743.47	1781.73
743.66	1609.70
743.84	1619.94
744.03	1714.15
744.21	1691.62
744.40	1732.58
744.59	1720.29
744.77	1597.42
744.96	1753.06
745.14	1636.33
745.33	1669.09
745.51	1777.64
745.70	1730.53
745.88	1685.48
746.07	1710.05
746.26	1673.19
746.44	1656.81
746.63	1558.50
746.81	1685.48
747.00	1662.95
747.18	1650.66
747.37	1609.70
747.55	1724.39
747.74	1898.47
747.92	1652.71
748.11	1740.77
748.29	1681.38
748.48	1710.05
748.66	1671.14
748.85	1650.66
749.03	1732.58
749.22	1630.18
749.41	1669.09
749.59	1722.34
749.78	1716.20
749.96	1572.84
750.15	1613.80
750.33	1755.11
750.52	1642.47
750.70	1648.61
750.89	1714.15
751.07	1699.81
751.26	1667.05
751.44	1658.85
751.63	1730.53
751.81	1566.70
752.00	1624.04
752.18	1656.81
752.37	1671.14
752.55	1609.70
752.74	1576.94
752.92	1708.01
753.10	1751.01
753.29	1630.18
753.47	1687.53
753.66	1587.18
753.84	1667.05
754.03	1658.85
754.21	1712.10
754.40	1699.81
754.58	1794.02
754.77	1759.21
754.95	1712.10
755.14	1710.05
755.32	1705.96
755.51	1599.46
755.69	1681.38
755.88	1556.46
756.06	1746.92
756.24	1607.66
756.43	1658.85
756.61	1681.38
756.80	1605.61
756.98	1697.77
757.17	1740.77
757.35	1681.38
757.54	1699.81
757.72	1697.77
757.90	1578.98
758.09	1689.57
758.27	1646.57
758.46	1650.66
758.64	1718.25
758.83	1697.77
759.01	1738.73
759.19	1720.29
759.38	1779.68
759.56	1697.77
759.75	1699.81
759.93	1746.92
760.12	1548.26
760.30	1705.96
760.48	1701.86
760.67	1738.73
760.85	1652.71
761.04	1585.13
761.22	1630.18
761.40	1699.81
761.59	1658.85
761.77	1681.38
761.96	1632.23
762.14	1703.91
762.32	1748.97
762.51	1699.81
762.69	1679.33
762.88	1667.05
763.06	1630.18
763.24	1689.57
763.43	1621.99
763.61	1671.14
763.80	1644.52
763.98	1724.39
764.16	1546.22
764.35	1624.04
764.53	1673.19
764.72	1677.29
764.90	1695.72
765.08	1744.87
765.27	1648.61
765.45	1667.05
765.63	1626.09
765.82	1746.92
766.00	1667.05
766.18	1691.62
766.37	1593.32
766.55	1673.19
766.74	1679.33
766.92	1562.60
767.10	1652.71
767.29	1755.11
767.47	1638.38
767.65	1746.92
767.84	1628.14
768.02	1746.92
768.20	1638.38
768.39	1681.38
768.57	1654.76
768.75	1734.63
768.94	1746.92
769.12	1605.61
769.30	1601.51
769.49	1652.71
769.67	1656.81
769.85	1773.54
770.04	1624.04
770.22	1671.14
770.40	1744.87
770.59	1683.43
770.77	1791.97
770.95	1714.15
771.14	1603.56
771.32	1683.43
771.50	1568.74
771.69	1597.42
771.87	1624.04
772.05	1630.18
772.24	1609.70
772.42	1705.96
772.60	1687.53
772.78	1734.63
772.97	1554.41
773.15	1683.43
773.33	1708.01
773.52	1578.98
773.70	1730.53
773.88	1765.35
774.07	1683.43
774.25	1658.85
774.43	1716.20
774.61	1748.97
774.80	1671.14
774.98	1697.77
775.16	1660.90
775.34	1632.23
775.53	1744.87
775.71	1744.87
775.89	1775.59
776.08	1632.23
776.26	1705.96
776.44	1673.19
776.62	1673.19
776.81	1654.76
776.99	1650.66
777.17	1689.57
777.35	1728.49
777.54	1615.85
777.72	1660.90
777.90	1669.09
778.08	1652.71
778.27	1650.66
778.45	1601.51
778.63	1679.33
778.81	1765.35
779.00	1693.67
779.18	1712.10
779.36	1748.97
779.54	1679.33
779.73	1656.81
779.91	1624.04
780.09	1611.75
780.27	1671.14
780.46	1720.29
780.64	1615.85
780.82	1765.35
781.00	1736.68
781.19	1654.76
781.37	1615.85
781.55	1705.96
781.73	1703.91
781.91	1591.27
782.10	1701.86
782.28	1734.63
782.46	1658.85
782.64	1656.81
782.82	1746.92
783.01	1603.56
783.19	1753.06
783.37	1714.15
783.55	1630.18
783.74	1689.57
783.92	1615.85
784.10	1648.61
784.28	1755.11
784.46	1761.25
784.64	1667.05
784.83	1650.66
785.01	1708.01
785.19	1769.44
785.37	1701.86
785.55	1642.47
785.74	1621.99
785.92	1763.30
786.10	1703.91
786.28	1673.19
786.46	1765.35
786.64	1675.24
786.83	1693.67
787.01	1763.30
787.19	1761.25
787.37	1779.68
787.55	1601.51
787.74	1535.98
787.92	1654.76
788.10	1722.34
788.28	1611.75
788.46	1658.85
788.64	1753.06
788.82	1642.47
789.01	1703.91
789.19	1779.68
789.37	1726.44
789.55	1632.23
789.73	1583.08
789.91	1726.44
790.09	1716.20
790.28	1648.61
790.46	1576.94
790.64	1722.34
790.82	1665.00
791.00	1701.86
791.18	1677.29
791.36	1742.82
791.55	1671.14
791.73	1660.90
791.91	1619.94
792.09	1642.47
792.27	1611.75
792.45	1669.09
792.63	1738.73
792.81	1638.38
793.00	1708.01
793.18	1683.43
793.36	1701.86
793.54	1593.32
793.72	1638.38
793.90	1685.48
794.08	1656.81
794.26	1732.58
794.44	1570.79
794.62	1566.70
794.81	1566.70
794.99	1714.15
795.17	1691.62
795.35	1654.76
795.53	1648.61
795.71	1708.01
795.89	1689.57
796.07	1634.28
796.25	1705.96
796.43	1724.39
796.61	1652.71
796.80	1701.86
796.98	1697.77
797.16	1708.01
797.34	1644.52
797.52	1687.53
797.70	1722.34
797.88	1697.77
798.06	1599.46
798.24	1679.33
798.42	1658.85
798.60	1683.43
798.78	1679.33
798.96	1642.47
799.14	1665.00
799.32	1685.48
799.51	1621.99
799.69	1697.77
799.87	1611.75
800.05	1712.10
800.23	1562.60
800.41	1642.47
800.59	1720.29
800.77	1714.15
800.95	1568.74
801.13	1656.81
801.31	1656.81
801.49	1720.29
801.67	1644.52
801.85	1644.52
802.03	1681.38
802.21	1697.77
802.39	1558.50
802.57	1642.47
802.75	1681.38
802.93	1781.73
803.11	1597.42
803.29	1753.06
803.47	1683.43
803.65	1607.66
803.83	1587.18
804.01	1695.72
804.19	1675.24
804.37	1687.53
804.55	1626.09
804.73	1767.40
804.91	1613.80
805.09	1617.90
805.27	1634.28
805.45	1619.94
805.63	1615.85
805.81	1699.81
805.99	1683.43
806.17	1630.18
806.35	1613.80
806.53	1665.00
806.71	1667.05
806.89	1658.85
807.07	1669.09
807.25	1687.53
807.43	1642.47
807.61	1740.77
807.79	1705.96
807.97	1619.94
808.15	1665.00
808.33	1642.47
808.51	1798.12
808.69	1648.61
808.87	1589.22
809.05	1603.56
809.23	1665.00
809.41	1572.84
809.59	1634.28
809.77	1804.26
809.95	1656.81
810.13	1734.63
810.31	1697.77
810.49	1644.52
810.67	1638.38
810.84	1716.20
811.02	1691.62
811.20	1601.51
811.38	1746.92
811.56	1624.04
811.74	1644.52
811.92	1597.42
812.10	1621.99
812.28	1738.73
812.46	1662.95
812.64	1732.58
812.82	1611.75
813.00	1585.13
813.18	1568.74
813.36	1753.06
813.53	1656.81
813.71	1681.38
813.89	1644.52
814.07	1673.19
814.25	1781.73
814.43	1632.23
814.61	1617.90
814.79	1601.51
814.97	1683.43
815.15	1650.66
815.33	1660.90
815.50	1589.22
815.68	1619.94
815.86	1755.11
816.04	1708.01
816.22	1630.18
816.40	1708.01
816.58	1599.46
816.76	1603.56
816.94	1665.00
817.11	1601.51
817.29	1665.00
817.47	1583.08
817.65	1683.43
817.83	1716.20
818.01	1687.53
818.19	1636.33
818.37	1699.81
818.54	1740.77
818.72	1769.44
818.90	1763.30
819.08	1613.80
819.26	1681.38
819.44	1769.44
819.62	1626.09
819.80	1636.33
819.97	1685.48
820.15	1644.52
820.33	1581.03
820.51	1619.94
820.69	1636.33
820.87	1775.59
821.05	1757.16
821.22	1587.18
821.40	1681.38
821.58	1660.90
821.76	1634.28
821.94	1648.61
822.12	1665.00
822.29	1703.91
822.47	1613.80
822.65	1613.80
822.83	1617.90
823.01	1660.90
823.19	1585.13
823.36	1708.01
823.54	1560.55
823.72	1693.67
823.90	1705.96
824.08	1613.80
824.25	1683.43
824.43	1701.86
824.61	1675.24
824.79	1730.53
824.97	1552.36
825.15	1720.29
825.32	1589.22
825.50	1648.61
825.68	1650.66
825.86	1691.62
826.04	1626.09
826.21	1794.02
826.39	1642.47
826.57	1665.00
826.75	1677.29
826.93	1646.57
827.10	1722.34
827.28	1634.28
827.46	1699.81
827.64	1683.43
827.81	1613.80
827.99	1677.29
828.17	1679.33
828.35	1630.18
828.53	1652.71
828.70	1685.48
828.88	1601.51
829.06	1615.85
829.24	1636.33
829.41	1683.43
829.59	1691.62
829.77	1658.85
829.95	1621.99
830.12	1665.00
830.30	1693.67
830.48	1691.62
830.66	1640.42
830.84	1652.71
831.01	1728.49
831.19	1591.27
831.37	1667.05
831.55	1658.85
831.72	1740.77
831.90	1724.39
832.08	1683.43
832.25	1656.81
832.43	1738.73
832.61	1722.34
832.79	1531.88
832.96	1708.01
833.14	1695.72
833.32	1726.44
833.50	1589.22
833.67	1638.38
833.85	1662.95
834.03	1697.77
834.20	1701.86
834.38	1738.73
834.56	1656.81
834.74	1689.57
834.91	1681.38
835.09	1703.91
835.27	1617.90
835.44	1689.57
835.62	1667.05
835.80	1646.57
835.98	1615.85
836.15	1679.33
836.33	1589.22
836.51	1544.17
836.68	1634.28
836.86	1613.80
837.04	1660.90
837.21	1720.29
837.39	1720.29
837.57	1777.64
837.75	1648.61
837.92	1683.43
838.10	1671.14
838.28	1660.90
838.45	1630.18
838.63	1662.95
838.81	1689.57
838.98	1675.24
839.16	1693.67
839.34	1521.64
839.51	1603.56
839.69	1630.18
839.87	1546.22
840.04	1662.95
840.22	1894.37
840.40	1667.05
840.57	1570.79
840.75	1650.66
840.93	1652.71
841.10	1607.66
841.28	1695.72
841.46	1669.09
841.63	1624.04
841.81	1630.18
841.98	1564.65
842.16	1757.16
842.34	1619.94
842.51	1626.09
842.69	1660.90
842.87	1621.99
843.04	1708.01
843.22	1673.19
843.40	1550.31
843.57	1691.62
843.75	1642.47
843.92	1691.62
844.10	1722.34
844.28	1675.24
844.45	1589.22
844.63	1648.61
844.81	1697.77
844.98	1732.58
845.16	1621.99
845.33	1791.97
845.51	1585.13
845.69	1759.21
845.86	1703.91
846.04	1576.94
846.21	1603.56
846.39	1619.94
846.57	1560.55
846.74	1595.37
846.92	1705.96
847.09	1646.57
847.27	1640.42
847.45	1716.20
847.62	1710.05
847.80	1617.90
847.97	1691.62
848.15	1630.18
848.32	1662.95
848.50	1683.43
848.68	1624.04
848.85	1605.61
849.03	1599.46
849.20	1681.38
849.38	1591.27
849.56	1626.09
849.73	1617.90
849.91	1634.28
850.08	1679.33
850.26	1632.23
850.43	1759.21
850.61	1673.19
850.78	1478.63
850.96	1671.14
851.14	1560.55
851.31	1824.74
851.49	1701.86
851.66	1710.05
851.84	1603.56
852.01	1609.70
852.19	1564.65
852.36	1662.95
852.54	1708.01
852.71	1540.07
852.89	1619.94
853.07	1619.94
853.24	1642.47
853.42	1624.04
853.59	1593.32
853.77	1648.61
853.94	1701.86
854.12	1761.25
854.29	1562.60
854.47	1589.22
854.64	1656.81
854.82	1718.25
854.99	1724.39
855.17	1652.71
855.34	1591.27
855.52	1658.85
855.69	1742.82
855.87	1665.00
856.04	1572.84
856.22	1642.47
856.39	1626.09
856.57	1662.95
856.74	1660.90
856.92	1761.25
857.09	1644.52
857.27	1654.76
857.44	1695.72
857.62	1697.77
857.79	1703.91
857.97	1771.49
858.14	1626.09
858.32	1695.72
858.49	1597.42
858.67	1691.62
858.84	1628.14
859.02	1740.77
859.19	1679.33
859.37	1611.75
859.54	1603.56
859.72	1597.42
859.89	1658.85
860.06	1542.12
860.24	1613.80
860.41	1699.81
860.59	1554.41
860.76	1632.23
860.94	1624.04
861.11	1687.53
861.29	1714.15
861.46	1552.36
861.64	1705.96
861.81	1746.92
861.98	1638.38
862.16	1626.09
862.33	1601.51
862.51	1650.66
862.68	1656.81
862.86	1630.18
863.03	1607.66
863.21	1638.38
863.38	1601.51
863.55	1564.65
863.73	1718.25
863.90	1722.34
864.08	1611.75
864.25	1701.86
864.43	1640.42
864.60	1650.66
864.77	1632.23
864.95	1695.72
865.12	1638.38
865.30	1712.10
865.47	1763.30
865.64	1677.29
865.82	1705.96
865.99	1730.53
866.17	1687.53
866.34	1748.97
866.51	1515.50
866.69	1611.75
866.86	1763.30
867.04	1726.44
867.21	1710.05
867.38	1638.38
867.56	1630.18
867.73	1675.24
867.91	1546.22
868.08	1621.99
868.25	1650.66
868.43	1597.42
868.60	1624.04
868.78	1527.78
868.95	1667.05
869.12	1667.05
869.30	1658.85
869.47	1652.71
869.64	1687.53
869.82	1632.23
869.99	1724.39
870.16	1675.24
870.34	1656.81
870.51	1732.58
870.69	1566.70
870.86	1585.13
871.03	1634.28
871.21	1650.66
871.38	1712.10
871.55	1689.57
871.73	1714.15
871.90	1667.05
872.07	1632.23
872.25	1523.69
872.42	1638.38
872.59	1574.89
872.77	1654.76
872.94	1691.62
873.11	1597.42
873.29	1689.57
873.46	1662.95
873.63	1716.20
873.81	1683.43
873.98	1736.68
874.15	1648.61
874.33	1718.25
874.50	1687.53
874.67	1681.38
874.85	1503.21
875.02	1634.28
875.19	1613.80
875.37	1634.28
875.54	1609.70
875.71	1667.05
875.88	1712.10
876.06	1658.85
876.23	1650.66
876.40	1638.38
876.58	1638.38
876.75	1667.05
876.92	1642.47
877.10	1673.19
877.27	1654.76
877.44	1708.01
877.61	1675.24
877.79	1695.72
877.96	1677.29
878.13	1699.81
878.31	1552.36
878.48	1576.94
878.65	1718.25
878.82	1591.27
879.00	1568.74
879.17	1675.24
879.34	1665.00
879.51	1611.75
879.69	1656.81
879.86	1525.74
880.03	1689.57
880.21	1632.23
880.38	1597.42
880.55	1712.10
880.72	1732.58
880.90	1673.19
881.07	1626.09
881.24	1705.96
881.41	1595.37
881.59	1665.00
881.76	1685.48
881.93	1710.05
882.10	1708.01
882.28	1603.56
882.45	1691.62
882.62	1714.15
882.79	1656.81
882.96	1574.89
883.14	1615.85
883.31	1697.77
883.48	1554.41
883.65	1656.81
883.83	1654.76
884.00	1605.61
884.17	1572.84
884.34	1679.33
884.51	1699.81
884.69	1687.53
884.86	1630.18
885.03	1644.52
885.20	1529.83
885.38	1638.38
885.55	1656.81
885.72	1703.91
885.89	1609.70
886.06	1693.67
886.24	1687.53
886.41	1574.89
886.58	1699.81
886.75	1734.63
886.92	1576.94
887.10	1566.70
887.27	1605.61
887.44	1740.77
887.61	1673.19
887.78	1718.25
887.95	1728.49
888.13	1572.84
888.30	1626.09
888.47	1646.57
888.64	1671.14
888.81	1732.58
888.99	1630.18
889.16	1609.70
889.33	1593.32
889.50	1675.24
889.67	1693.67
889.84	1652.71
890.01	1634.28
890.19	1705.96
890.36	1621.99
890.53	1615.85
890.70	1587.18
890.87	1642.47
891.04	1566.70
891.22	1662.95
891.39	1640.42
891.56	1699.81
891.73	1656.81
891.90	1576.94
892.07	1548.26
892.24	1763.30
892.42	1630.18
892.59	1544.17
892.76	1748.97
892.93	1558.50
893.10	1740.77
893.27	1667.05
893.44	1558.50
893.61	1583.08
893.79	1699.81
893.96	1615.85
894.13	1611.75
894.30	1587.18
894.47	1691.62
894.64	1705.96
894.81	1687.53
894.98	1611.75
895.15	1697.77
895.33	1689.57
895.50	1595.37
895.67	1624.04
895.84	1597.42
896.01	1648.61
896.18	1515.50
896.35	1814.50
896.52	1630.18
896.69	1636.33
896.86	1605.61
897.04	1769.44
897.21	1628.14
897.38	1683.43
897.55	1658.85
897.72	1699.81
897.89	1658.85
898.06	1714.15
898.23	1611.75
898.40	1671.14
898.57	1685.48
898.74	1710.05
898.91	1621.99
899.08	1634.28
899.26	1650.66
899.43	1728.49
899.60	1658.85
899.77	1705.96
899.94	1548.26
900.11	1669.09
900.28	1712.10
900.45	1605.61
900.62	1585.13
900.79	1734.63
900.96	1630.18
901.13	1681.38
901.30	1654.76
901.47	1617.90
901.64	1574.89
901.81	1708.01
901.98	1640.42
902.15	1691.62
902.32	1591.27
902.49	1697.77
902.66	1732.58
902.83	1589.22
903.01	1638.38
903.18	1636.33
903.35	1511.40
903.52	1609.70
903.69	1607.66
903.86	1630.18
904.03	1581.03
904.20	1765.35
904.37	1708.01
904.54	1527.78
904.71	1708.01
904.88	1697.77
905.05	1626.09
905.22	1644.52
905.39	1531.88
905.56	1583.08
905.73	1540.07
905.90	1601.51
906.07	1699.81
906.24	1679.33
906.41	1621.99
906.58	1644.52
906.75	1535.98
906.92	1531.88
907.09	1546.22
907.26	1691.62
907.43	1607.66
907.60	1593.32
907.77	1667.05
907.93	1636.33
908.10	1603.56
908.27	1703.91
908.44	1583.08
908.61	1650.66
908.78	1617.90
908.95	1716.20
909.12	1628.14
909.29	1632.23
909.46	1677.29
909.63	1697.77
909.80	1652.71
909.97	1634.28
910.14	1677.29
910.31	1662.95
910.48	1665.00
910.65	1687.53
910.82	1581.03
910.99	1607.66
911.16	1705.96
911.33	1658.85
911.50	1568.74
911.66	1611.75
911.83	1640.42
912.00	1648.61
912.17	1601.51
912.34	1613.80
912.51	1644.52
912.68	1662.95
912.85	1658.85
913.02	1708.01
913.19	1619.94
913.36	1699.81
913.53	1746.92
913.70	1654.76
913.86	1691.62
914.03	1628.14
914.20	1648.61
914.37	1593.32
914.54	1634.28
914.71	1679.33
914.88	1667.05
915.05	1613.80
915.22	1624.04
915.39	1689.57
915.55	1611.75
915.72	1591.27
915.89	1593.32
916.06	1601.51
916.23	1589.22
916.40	1621.99
916.57	1624.04
916.74	1705.96
916.91	1648.61
917.07	1634.28
917.24	1566.70
917.41	1718.25
917.58	1705.96
917.75	1574.89
917.92	1511.40
918.09	1617.90
918.26	1656.81
918.42	1617.90
918.59	1626.09
918.76	1626.09
918.93	1642.47
919.10	1599.46
919.27	1613.80
919.44	1757.16
919.60	1683.43
919.77	1613.80
919.94	1601.51
920.11	1630.18
920.28	1632.23
920.45	1609.70
920.61	1605.61
920.78	1642.47
920.95	1716.20
921.12	1671.14
921.29	1626.09
921.46	1667.05
921.62	1544.17
921.79	1621.99
921.96	1644.52
922.13	1634.28
922.30	1660.90
922.47	1587.18
922.63	1626.09
922.80	1691.62
922.97	1617.90
923.14	1490.92
923.31	1574.89
923.47	1656.81
923.64	1751.01
923.81	1609.70
923.98	1716.20
924.15	1628.14
924.32	1624.04
924.48	1658.85
924.65	1693.67
924.82	1564.65
924.99	1603.56
925.15	1544.17
925.32	1814.50
925.49	1640.42
925.66	1693.67
925.83	1648.61
925.99	1562.60
926.16	1685.48
926.33	1677.29
926.50	1533.93
926.67	1568.74
926.83	1601.51
927.00	1695.72
927.17	1570.79
927.34	1597.42
927.50	1673.19
927.67	1847.27
927.84	1738.73
928.01	1675.24
928.17	1679.33
928.34	1593.32
928.51	1665.00
928.68	1587.18
928.84	1626.09
929.01	1673.19
929.18	1558.50
929.35	1671.14
929.51	1583.08
929.68	1617.90
929.85	1673.19
930.02	1615.85
930.18	1585.13
930.35	1751.01
930.52	1636.33
930.69	1613.80
930.85	1679.33
931.02	1644.52
931.19	1607.66
931.36	1554.41
931.52	1722.34
931.69	1667.05
931.86	1630.18
932.02	1583.08
932.19	1673.19
932.36	1681.38
932.53	1617.90
932.69	1683.43
932.86	1751.01
933.03	1574.89
933.19	1550.31
933.36	1654.76
933.53	1689.57
933.70	1611.75
933.86	1683.43
934.03	1695.72
934.20	1572.84
934.36	1669.09
934.53	1601.51
934.70	1583.08
934.86	1642.47
935.03	1624.04
935.20	1679.33
935.36	1572.84
935.53	1560.55
935.70	1597.42
935.86	1630.18
936.03	1538.02
936.20	1531.88
936.36	1607.66
936.53	1660.90
936.70	1589.22
936.86	1785.83
937.03	1716.20
937.20	1601.51
937.36	1638.38
937.53	1501.16
937.70	1589.22
937.86	1560.55
938.03	1691.62
938.20	1781.73
938.36	1687.53
938.53	1636.33
938.70	1599.46
938.86	1675.24
939.03	1732.58
939.20	1511.40
939.36	1617.90
939.53	1665.00
939.70	1863.65
939.86	1566.70
940.03	1583.08
940.19	1617.90
940.36	1634.28
940.53	1691.62
940.69	1646.57
940.86	1662.95
941.03	1632.23
941.19	1499.11
941.36	1654.76
941.52	1699.81
941.69	1638.38
941.86	1595.37
942.02	1648.61
942.19	1652.71
942.35	1648.61
942.52	1640.42
942.69	1658.85
942.85	1568.74
943.02	1638.38
943.18	1697.77
943.35	1617.90
943.52	1650.66
943.68	1628.14
943.85	1697.77
944.01	1566.70
944.18	1621.99
944.35	1757.16
944.51	1613.80
944.68	1468.39
944.84	1609.70
945.01	1642.47
945.17	1652.71
945.34	1589.22
945.51	1689.57
945.67	1642.47
945.84	1544.17
946.00	1644.52
946.17	1630.18
946.33	1650.66
946.50	1708.01
946.67	1679.33
946.83	1597.42
947.00	1753.06
947.16	1554.41
947.33	1654.76
947.49	1601.51
947.66	1587.18
947.82	1693.67
947.99	1634.28
948.16	1630.18
948.32	1654.76
948.49	1634.28
948.65	1665.00
948.82	1636.33
948.98	1662.95
949.15	1558.50
949.31	1726.44
949.48	1601.51
949.64	1617.90
949.81	1654.76
949.97	1564.65
950.14	1632.23
950.30	1595.37
950.47	1673.19
950.63	1574.89
950.80	1675.24
950.96	1671.14
951.13	1658.85
951.30	1646.57
951.46	1605.61
951.63	1638.38
951.79	1669.09
951.96	1685.48
952.12	1585.13
952.29	1646.57
952.45	1576.94
952.62	1669.09
952.78	1587.18
952.94	1673.19
953.11	1519.59
953.27	1474.54
953.44	1699.81
953.60	1691.62
953.77	1679.33
953.93	1578.98
954.10	1665.00
954.26	1634.28
954.43	1669.09
954.59	1757.16
954.76	1716.20
954.92	1624.04
955.09	1669.09
955.25	1605.61
955.42	1630.18
955.58	1716.20
955.75	1673.19
955.91	1589.22
956.07	1570.79
956.24	1556.46
956.40	1685.48
956.57	1607.66
956.73	1540.07
956.90	1650.66
957.06	1578.98
957.23	1689.57
957.39	1650.66
957.56	1654.76
957.72	1495.02
957.88	1558.50
958.05	1761.25
958.21	1695.72
958.38	1679.33
958.54	1556.46
958.71	1716.20
958.87	1564.65
959.03	1683.43
959.20	1630.18
959.36	1542.12
959.53	1636.33
959.69	1560.55
959.85	1599.46
960.02	1583.08
960.18	1572.84
960.35	1613.80
960.51	1673.19
960.68	1568.74
960.84	1665.00
961.00	1581.03
961.17	1581.03
961.33	1566.70
961.50	1585.13
961.66	1603.56
961.82	1603.56
961.99	1646.57
962.15	1591.27
962.31	1589.22
962.48	1654.76
962.64	1646.57
962.81	1640.42
962.97	1640.42
963.13	1576.94
963.30	1634.28
963.46	1638.38
963.62	1552.36
963.79	1578.98
963.95	1607.66
964.12	1591.27
964.28	1660.90
964.44	1527.78
964.61	1675.24
964.77	1675.24
964.93	1773.54
965.10	1597.42
965.26	1605.61
965.42	1658.85
965.59	1578.98
965.75	1605.61
965.92	1656.81
966.08	1621.99
966.24	1570.79
966.41	1605.61
966.57	1617.90
966.73	1656.81
966.90	1726.44
967.06	1613.80
967.22	1566.70
967.39	1607.66
967.55	1574.89
967.71	1605.61
967.88	1607.66
968.04	1617.90
968.20	1619.94
968.37	1708.01
968.53	1630.18
968.69	1611.75
968.85	1730.53
969.02	1626.09
969.18	1701.86
969.34	1644.52
969.51	1576.94
969.67	1712.10
969.83	1574.89
970.00	1689.57
970.16	1671.14
970.32	1687.53
970.48	1703.91
970.65	1521.64
970.81	1695.72
970.97	1642.47
971.14	1576.94
971.30	1726.44
971.46	1599.46
971.63	1617.90
971.79	1662.95
971.95	1687.53
972.11	1523.69
972.28	1630.18
972.44	1638.38
972.60	1574.89
972.76	1652.71
972.93	1595.37
973.09	1705.96
973.25	1615.85
973.42	1634.28
973.58	1675.24
973.74	1626.09
973.90	1726.44
974.07	1572.84
974.23	1634.28
974.39	1638.38
974.55	1683.43
974.72	1585.13
974.88	1521.64
975.04	1642.47
975.20	1544.17
975.37	1576.94
975.53	1583.08
975.69	1705.96
975.85	1607.66
976.01	1630.18
976.18	1626.09
976.34	1587.18
976.50	1675.24
976.66	1708.01
976.83	1613.80
976.99	1597.42
977.15	1701.86
977.31	1517.54
977.47	1638.38
977.64	1619.94
977.80	1628.14
977.96	1665.00
978.12	1658.85
978.29	1552.36
978.45	1492.97
978.61	1671.14
978.77	1654.76
978.93	1587.18
979.10	1644.52
979.26	1603.56
979.42	1652.71
979.58	1574.89
979.74	1585.13
979.91	1552.36
980.07	1685.48
980.23	1626.09
980.39	1540.07
980.55	1599.46
980.71	1640.42
980.88	1523.69
981.04	1640.42
981.20	1611.75
981.36	1712.10
981.52	1642.47
981.68	1593.32
981.85	1679.33
982.01	1636.33
982.17	1597.42
982.33	1597.42
982.49	1673.19
982.65	1572.84
982.82	1691.62
982.98	1587.18
983.14	1560.55
983.30	1695.72
983.46	1675.24
983.62	1697.77
983.79	1492.97
983.95	1687.53
984.11	1523.69
984.27	1578.98
984.43	1613.80
984.59	1621.99
984.75	1634.28
984.91	1634.28
985.08	1681.38
985.24	1509.35
985.40	1599.46
985.56	1576.94
985.72	1650.66
985.88	1679.33
986.04	1560.55
986.20	1531.88
986.37	1667.05
986.53	1550.31
986.69	1613.80
986.85	1566.70
987.01	1605.61
987.17	1652.71
987.33	1609.70
987.49	1533.93
987.65	1665.00
987.82	1591.27
987.98	1591.27
988.14	1656.81
988.30	1669.09
988.46	1568.74
988.62	1591.27
988.78	1572.84
988.94	1697.77
989.10	1589.22
989.26	1576.94
989.42	1626.09
989.59	1609.70
989.75	1605.61
989.91	1669.09
990.07	1523.69
990.23	1583.08
990.39	1646.57
990.55	1587.18
990.71	1566.70
990.87	1636.33
991.03	1691.62
991.19	1597.42
991.35	1687.53
991.51	1603.56
991.67	1685.48
991.83	1628.14
992.00	1587.18
992.16	1648.61
992.32	1654.76
992.48	1603.56
992.64	1646.57
992.80	1642.47
992.96	1632.23
993.12	1562.60
993.28	1679.33
993.44	1617.90
993.60	1605.61
993.76	1611.75
993.92	1603.56
994.08	1658.85
994.24	1638.38
994.40	1611.75
994.56	1662.95
994.72	1587.18
994.88	1636.33
995.04	1667.05
995.20	1599.46
995.36	1492.97
995.52	1660.90
995.68	1558.50
995.84	1607.66
996.00	1732.58
996.16	1632.23
996.32	1615.85
996.48	1576.94
996.64	1656.81
996.80	1554.41
996.96	1665.00
997.12	1597.42
997.28	1619.94
997.44	1581.03
997.60	1589.22
997.76	1662.95
997.92	1662.95
998.08	1646.57
998.24	1566.70
998.40	1687.53
998.56	1669.09
998.72	1519.59
998.88	1546.22
999.04	1560.55
999.20	1654.76
999.36	1611.75
999.52	1761.25
999.68	1603.56
999.84	1581.03
1000.00	1697.77
1000.16	1644.52
1000.32	1523.69
1000.48	1710.05
1000.64	1591.27
1000.80	1533.93
1000.95	1581.03
1001.11	1642.47
1001.27	1517.54
1001.43	1640.42
1001.59	1499.11
1001.75	1591.27
1001.91	1640.42
1002.07	1587.18
1002.23	1605.61
1002.39	1595.37
1002.55	1601.51
1002.71	1624.04
1002.87	1593.32
1003.03	1585.13
1003.19	1621.99
1003.34	1712.10
1003.50	1626.09
1003.66	1705.96
1003.82	1708.01
1003.98	1566.70
1004.14	1550.31
1004.30	1607.66
1004.46	1595.37
1004.62	1611.75
1004.78	1585.13
1004.94	1634.28
1005.09	1658.85
1005.25	1728.49
1005.41	1564.65
1005.57	1570.79
1005.73	1587.18
1005.89	1529.83
1006.05	1644.52
1006.21	1640.42
1006.37	1556.46
1006.52	1638.38
1006.68	1554.41
1006.84	1681.38
1007.00	1562.60
1007.16	1671.14
1007.32	1597.42
1007.48	1654.76
1007.64	1613.80
1007.79	1611.75
1007.95	1535.98
1008.11	1691.62
1008.27	1619.94
1008.43	1601.51
1008.59	1609.70
1008.75	1669.09
1008.91	1648.61
1009.06	1517.54
1009.22	1634.28
1009.38	1699.81
1009.54	1685.48
1009.70	1636.33
1009.86	1652.71
1010.01	1619.94
1010.17	1609.70
1010.33	1624.04
1010.49	1601.51
1010.65	1654.76
1010.81	1527.78
1010.96	1621.99
1011.12	1581.03
1011.28	1609.70
1011.44	1667.05
1011.60	1626.09
1011.76	1615.85
1011.91	1640.42
1012.07	1556.46
1012.23	1488.87
1012.39	1591.27
1012.55	1624.04
1012.71	1609.70
1012.86	1552.36
1013.02	1576.94
1013.18	1638.38
1013.34	1628.14
1013.50	1599.46
1013.65	1626.09
1013.81	1585.13
1013.97	1503.21
1014.13	1626.09
1014.29	1566.70
1014.44	1689.57
1014.60	1554.41
1014.76	1609.70
1014.92	1634.28
1015.07	1607.66
1015.23	1693.67
1015.39	1581.03
1015.55	1535.98
1015.71	1626.09
1015.86	1585.13
1016.02	1531.88
1016.18	1482.73
1016.34	1632.23
1016.49	1589.22
1016.65	1712.10
1016.81	1648.61
1016.97	1503.21
1017.12	1673.19
1017.28	1609.70
1017.44	1533.93
1017.60	1597.42
1017.75	1599.46
1017.91	1619.94
1018.07	1609.70
1018.23	1568.74
1018.38	1589.22
1018.54	1570.79
1018.70	1574.89
1018.86	1599.46
1019.01	1581.03
1019.17	1646.57
1019.33	1724.39
1019.49	1662.95
1019.64	1615.85
1019.80	1658.85
1019.96	1681.38
1020.12	1677.29
1020.27	1583.08
1020.43	1609.70
1020.59	1621.99
1020.74	1593.32
1020.90	1646.57
1021.06	1609.70
1021.22	1589.22
1021.37	1679.33
1021.53	1578.98
1021.69	1621.99
1021.84	1572.84
1022.00	1585.13
1022.16	1531.88
1022.31	1638.38
1022.47	1687.53
1022.63	1566.70
1022.79	1576.94
1022.94	1628.14
1023.10	1630.18
1023.26	1626.09
1023.41	1574.89
1023.57	1558.50
1023.73	1630.18
1023.88	1667.05
1024.04	1554.41
1024.20	1626.09
1024.35	1568.74
1024.51	1566.70
1024.67	1538.02
1024.82	1617.90
1024.98	1525.74
1025.14	1621.99
1025.29	1595.37
1025.45	1718.25
1025.61	1576.94
1025.76	1601.51
1025.92	1630.18
1026.08	1544.17
1026.23	1710.05
1026.39	1703.91
1026.55	1642.47
1026.70	1607.66
1026.86	1632.23
1027.02	1662.95
1027.17	1648.61
1027.33	1601.51
1027.48	1617.90
1027.64	1662.95
1027.80	1603.56
1027.95	1665.00
1028.11	1535.98
1028.27	1665.00
1028.42	1658.85
1028.58	1642.47
1028.73	1628.14
1028.89	1607.66
1029.05	1716.20
1029.20	1658.85
>>>>>End Processed Spectral Data<<<<<
