SpectraSuite Data File
++++++++++++++++++++++++++++++++++++
Date: Fri Jun 02 14:53:28 CEST 2017
User: INFO_000
Dark Spectrum Present: No
Reference Spectrum Present: No
Number of Sampled Component Spectra: 1
Spectrometers: USB4H00879
Integration Time (usec): 80000 (USB4H00879)
Spectra Averaged: 1 (USB4H00879)
Boxcar Smoothing: 0 (USB4H00879)
Correct for Electrical Dark: No (USB4H00879)
Strobe/Lamp Enabled: No (USB4H00879)
Correct for Detector Non-linearity: No (USB4H00879)
Correct for Stray Light: No (USB4H00879)
Number of Pixels in Processed Spectrum: 3648
>>>>>Begin Processed Spectral Data<<<<<
345.13	1331.18
345.34	1331.18
345.56	1331.18
345.78	1294.32
345.99	1218.54
346.21	1667.05
346.42	1701.86
346.64	1712.10
346.86	1775.59
347.07	1632.23
347.29	1748.97
347.50	1626.09
347.72	1689.57
347.94	1826.79
348.15	1556.46
348.37	1583.08
348.59	1648.61
348.80	1638.38
349.02	1683.43
349.23	1736.68
349.45	1710.05
349.67	1779.68
349.88	1691.62
350.10	1744.87
350.31	1730.53
350.53	1650.66
350.75	1796.07
350.96	1675.24
351.18	1728.49
351.39	1796.07
351.61	1705.96
351.82	1740.77
352.04	1759.21
352.26	1677.29
352.47	1726.44
352.69	1755.11
352.90	1589.22
353.12	1728.49
353.34	1710.05
353.55	1828.84
353.77	1773.54
353.98	1687.53
354.20	1730.53
354.41	1712.10
354.63	1748.97
354.85	1806.31
355.06	1691.62
355.28	1556.46
355.49	1794.02
355.71	1732.58
355.92	1685.48
356.14	1724.39
356.35	1673.19
356.57	1665.00
356.79	1708.01
357.00	1648.61
357.22	1806.31
357.43	1724.39
357.65	1783.78
357.86	1683.43
358.08	1732.58
358.29	1796.07
358.51	1726.44
358.72	1748.97
358.94	1728.49
359.16	1699.81
359.37	1652.71
359.59	1744.87
359.80	1796.07
360.02	1724.39
360.23	1785.83
360.45	1751.01
360.66	1685.48
360.88	1628.14
361.09	1681.38
361.31	1808.36
361.52	1742.82
361.74	1781.73
361.95	1804.26
362.17	1689.57
362.38	1791.97
362.60	1722.34
362.81	1740.77
363.03	1794.02
363.24	1777.64
363.46	1794.02
363.67	1802.21
363.89	1720.29
364.10	1705.96
364.32	1691.62
364.53	1802.21
364.75	1591.27
364.96	1781.73
365.18	1773.54
365.39	1748.97
365.61	1626.09
365.82	1814.50
366.04	1730.53
366.25	1648.61
366.47	1751.01
366.68	1722.34
366.90	1599.46
367.11	1746.92
367.33	1822.69
367.54	1761.25
367.76	1665.00
367.97	1748.97
368.19	1740.77
368.40	1675.24
368.62	1665.00
368.83	1611.75
369.05	1753.06
369.26	1634.28
369.48	1626.09
369.69	1740.77
369.91	1732.58
370.12	1667.05
370.33	1748.97
370.55	1607.66
370.76	1703.91
370.98	1685.48
371.19	1806.31
371.41	1751.01
371.62	1722.34
371.84	1660.90
372.05	1763.30
372.27	1697.77
372.48	1728.49
372.69	1669.09
372.91	1712.10
373.12	1796.07
373.34	1736.68
373.55	1785.83
373.77	1734.63
373.98	1671.14
374.20	1814.50
374.41	1820.64
374.62	1703.91
374.84	1734.63
375.05	1687.53
375.27	1656.81
375.48	1732.58
375.70	1716.20
375.91	1777.64
376.12	1865.70
376.34	1646.57
376.55	1693.67
376.77	1734.63
376.98	1685.48
377.19	1599.46
377.41	1658.85
377.62	1697.77
377.84	1777.64
378.05	1837.03
378.27	1665.00
378.48	1751.01
378.69	1832.93
378.91	1802.21
379.12	1701.86
379.34	1681.38
379.55	1826.79
379.76	1689.57
379.98	1705.96
380.19	1718.25
380.41	1740.77
380.62	1767.40
380.83	1667.05
381.05	1601.51
381.26	1777.64
381.47	1703.91
381.69	1662.95
381.90	1740.77
382.12	1691.62
382.33	1732.58
382.54	1730.53
382.76	1769.44
382.97	1714.15
383.19	1646.57
383.40	1724.39
383.61	1728.49
383.83	1617.90
384.04	1624.04
384.25	1755.11
384.47	1824.74
384.68	1736.68
384.89	1621.99
385.11	1675.24
385.32	1617.90
385.54	1662.95
385.75	1652.71
385.96	1675.24
386.18	1679.33
386.39	1714.15
386.60	1585.13
386.82	1710.05
387.03	1640.42
387.24	1859.56
387.46	1679.33
387.67	1677.29
387.88	1744.87
388.10	1699.81
388.31	1601.51
388.52	1697.77
388.74	1677.29
388.95	1689.57
389.16	1708.01
389.38	1619.94
389.59	1734.63
389.80	1763.30
390.02	1624.04
390.23	1773.54
390.44	1654.76
390.66	1621.99
390.87	1589.22
391.08	1646.57
391.30	1798.12
391.51	1654.76
391.72	1834.98
391.94	1732.58
392.15	1644.52
392.36	1665.00
392.58	1656.81
392.79	1744.87
393.00	1710.05
393.22	1740.77
393.43	1771.49
393.64	1781.73
393.85	1769.44
394.07	1626.09
394.28	1714.15
394.49	1751.01
394.71	1755.11
394.92	1779.68
395.13	1640.42
395.35	1634.28
395.56	1695.72
395.77	1798.12
395.98	1650.66
396.20	1705.96
396.41	1714.15
396.62	1730.53
396.84	1695.72
397.05	1636.33
397.26	1675.24
397.47	1767.40
397.69	1708.01
397.90	1822.69
398.11	1794.02
398.32	1732.58
398.54	1648.61
398.75	1665.00
398.96	1695.72
399.18	1779.68
399.39	1673.19
399.60	1714.15
399.81	1718.25
400.03	1619.94
400.24	1886.18
400.45	1697.77
400.66	1722.34
400.88	1585.13
401.09	1869.80
401.30	1757.16
401.51	1794.02
401.73	1796.07
401.94	1783.78
402.15	1720.29
402.36	1710.05
402.58	1724.39
402.79	1722.34
403.00	1669.09
403.21	1763.30
403.43	1712.10
403.64	1820.64
403.85	1642.47
404.06	1740.77
404.27	1587.18
404.49	1705.96
404.70	1665.00
404.91	1804.26
405.12	1732.58
405.34	1769.44
405.55	1755.11
405.76	1595.37
405.97	1740.77
406.19	1841.12
406.40	1597.42
406.61	1634.28
406.82	1712.10
407.03	1652.71
407.25	1740.77
407.46	1822.69
407.67	1720.29
407.88	1736.68
408.09	1726.44
408.31	1656.81
408.52	1718.25
408.73	1699.81
408.94	1697.77
409.15	1660.90
409.37	1744.87
409.58	1771.49
409.79	1728.49
410.00	1763.30
410.21	1675.24
410.43	1679.33
410.64	1654.76
410.85	1673.19
411.06	1748.97
411.27	1785.83
411.48	1839.08
411.70	1660.90
411.91	1667.05
412.12	1779.68
412.33	1777.64
412.54	1693.67
412.76	1691.62
412.97	1839.08
413.18	1695.72
413.39	1699.81
413.60	1808.36
413.81	1693.67
414.03	1626.09
414.24	1693.67
414.45	1824.74
414.66	1646.57
414.87	1617.90
415.08	1753.06
415.30	1708.01
415.51	1757.16
415.72	1736.68
415.93	1708.01
416.14	1753.06
416.35	1703.91
416.56	1720.29
416.78	1687.53
416.99	1699.81
417.20	1812.45
417.41	1824.74
417.62	1744.87
417.83	1798.12
418.04	1753.06
418.26	1783.78
418.47	1638.38
418.68	1800.16
418.89	1763.30
419.10	1863.65
419.31	1789.92
419.52	1779.68
419.73	1765.35
419.95	1791.97
420.16	1677.29
420.37	1736.68
420.58	1695.72
420.79	1583.08
421.00	1665.00
421.21	1712.10
421.42	1716.20
421.63	1724.39
421.85	1675.24
422.06	1671.14
422.27	1730.53
422.48	1679.33
422.69	1683.43
422.90	1650.66
423.11	1703.91
423.32	1798.12
423.53	1863.65
423.75	1720.29
423.96	1708.01
424.17	1765.35
424.38	1886.18
424.59	1705.96
424.80	1660.90
425.01	1697.77
425.22	1564.65
425.43	1712.10
425.64	1791.97
425.85	1845.22
426.06	1839.08
426.28	1771.49
426.49	1621.99
426.70	1595.37
426.91	1759.21
427.12	1665.00
427.33	1691.62
427.54	1755.11
427.75	1724.39
427.96	1691.62
428.17	1710.05
428.38	1624.04
428.59	1730.53
428.80	1757.16
429.01	1617.90
429.23	1640.42
429.44	1722.34
429.65	1703.91
429.86	1781.73
430.07	1689.57
430.28	1599.46
430.49	1681.38
430.70	1794.02
430.91	1865.70
431.12	1634.28
431.33	1699.81
431.54	1789.92
431.75	1652.71
431.96	1662.95
432.17	1697.77
432.38	1689.57
432.59	1896.42
432.80	1755.11
433.01	1675.24
433.22	1665.00
433.43	1708.01
433.64	1708.01
433.85	1751.01
434.06	1687.53
434.27	1650.66
434.49	1648.61
434.70	1789.92
434.91	1730.53
435.12	1705.96
435.33	1683.43
435.54	1705.96
435.75	1593.32
435.96	1646.57
436.17	1697.77
436.38	1712.10
436.59	1703.91
436.80	1630.18
437.01	1806.31
437.22	1669.09
437.43	1701.86
437.64	1640.42
437.85	1744.87
438.06	1798.12
438.27	1728.49
438.48	1744.87
438.69	1697.77
438.90	1751.01
439.11	1728.49
439.32	1794.02
439.53	1630.18
439.74	1605.61
439.95	1773.54
440.16	1658.85
440.37	1691.62
440.57	1638.38
440.78	1734.63
440.99	1624.04
441.20	1683.43
441.41	1576.94
441.62	1660.90
441.83	1640.42
442.04	1675.24
442.25	1660.90
442.46	1673.19
442.67	1613.80
442.88	1781.73
443.09	1638.38
443.30	1652.71
443.51	1652.71
443.72	1755.11
443.93	1617.90
444.14	1712.10
444.35	1705.96
444.56	1708.01
444.77	1632.23
444.98	1718.25
445.19	1689.57
445.40	1699.81
445.61	1652.71
445.81	1581.03
446.02	1781.73
446.23	1662.95
446.44	1624.04
446.65	1740.77
446.86	1757.16
447.07	1859.56
447.28	1687.53
447.49	1703.91
447.70	1679.33
447.91	1765.35
448.12	1683.43
448.33	1712.10
448.54	1658.85
448.74	1683.43
448.95	1691.62
449.16	1753.06
449.37	1753.06
449.58	1769.44
449.79	1740.77
450.00	1703.91
450.21	1703.91
450.42	1705.96
450.63	1656.81
450.84	1640.42
451.05	1681.38
451.25	1667.05
451.46	1681.38
451.67	1832.93
451.88	1771.49
452.09	1708.01
452.30	1685.48
452.51	1703.91
452.72	1791.97
452.93	1814.50
453.13	1755.11
453.34	1675.24
453.55	1748.97
453.76	1665.00
453.97	1689.57
454.18	1587.18
454.39	1726.44
454.60	1703.91
454.81	1744.87
455.01	1767.40
455.22	1732.58
455.43	1691.62
455.64	1650.66
455.85	1757.16
456.06	1710.05
456.27	1748.97
456.48	1740.77
456.68	1677.29
456.89	1738.73
457.10	1755.11
457.31	1732.58
457.52	1785.83
457.73	1658.85
457.94	1806.31
458.14	1585.13
458.35	1734.63
458.56	1683.43
458.77	1771.49
458.98	1718.25
459.19	1681.38
459.39	1740.77
459.60	1728.49
459.81	1677.29
460.02	1656.81
460.23	1691.62
460.44	1638.38
460.65	1712.10
460.85	1695.72
461.06	1630.18
461.27	1794.02
461.48	1658.85
461.69	1599.46
461.89	1583.08
462.10	1687.53
462.31	1605.61
462.52	1624.04
462.73	1617.90
462.94	1728.49
463.14	1632.23
463.35	1654.76
463.56	1808.36
463.77	1748.97
463.98	1675.24
464.18	1638.38
464.39	1716.20
464.60	1662.95
464.81	1540.07
465.02	1708.01
465.23	1718.25
465.43	1697.77
465.64	1634.28
465.85	1624.04
466.06	1740.77
466.27	1736.68
466.47	1691.62
466.68	1732.58
466.89	1654.76
467.10	1615.85
467.30	1624.04
467.51	1683.43
467.72	1693.67
467.93	1589.22
468.14	1662.95
468.34	1734.63
468.55	1601.51
468.76	1771.49
468.97	1699.81
469.17	1708.01
469.38	1869.80
469.59	1746.92
469.80	1732.58
470.01	1685.48
470.21	1660.90
470.42	1726.44
470.63	1710.05
470.84	1763.30
471.04	1660.90
471.25	1785.83
471.46	1730.53
471.67	1734.63
471.87	1673.19
472.08	1699.81
472.29	1667.05
472.50	1748.97
472.70	1705.96
472.91	1658.85
473.12	1667.05
473.33	1665.00
473.53	1665.00
473.74	1697.77
473.95	1671.14
474.16	1638.38
474.36	1583.08
474.57	1746.92
474.78	1673.19
474.99	1775.59
475.19	1718.25
475.40	1685.48
475.61	1724.39
475.81	1742.82
476.02	1578.98
476.23	1751.01
476.44	1675.24
476.64	1689.57
476.85	1673.19
477.06	1748.97
477.27	1601.51
477.47	1824.74
477.68	1724.39
477.89	1638.38
478.09	1751.01
478.30	1746.92
478.51	1708.01
478.71	1650.66
478.92	1806.31
479.13	1781.73
479.34	1540.07
479.54	1746.92
479.75	1671.14
479.96	1615.85
480.16	1648.61
480.37	1617.90
480.58	1658.85
480.78	1757.16
480.99	1652.71
481.20	1681.38
481.41	1744.87
481.61	1708.01
481.82	1789.92
482.03	1609.70
482.23	1626.09
482.44	1748.97
482.65	1880.04
482.85	1808.36
483.06	1677.29
483.27	1734.63
483.47	1681.38
483.68	1626.09
483.89	1708.01
484.09	1689.57
484.30	1667.05
484.51	1812.45
484.71	1638.38
484.92	1578.98
485.13	1732.58
485.33	1652.71
485.54	1679.33
485.75	1660.90
485.95	1777.64
486.16	1689.57
486.37	1687.53
486.57	1689.57
486.78	1568.74
486.98	1746.92
487.19	1691.62
487.40	1748.97
487.60	1685.48
487.81	1687.53
488.02	1636.33
488.22	1679.33
488.43	1834.98
488.64	1662.95
488.84	1624.04
489.05	1691.62
489.25	1603.56
489.46	1679.33
489.67	1667.05
489.87	1708.01
490.08	1665.00
490.29	1642.47
490.49	1832.93
490.70	1744.87
490.90	1683.43
491.11	1697.77
491.32	1718.25
491.52	1710.05
491.73	1617.90
491.94	1628.14
492.14	1687.53
492.35	1650.66
492.55	1738.73
492.76	1689.57
492.97	1656.81
493.17	1802.21
493.38	1755.11
493.58	1777.64
493.79	1695.72
494.00	1687.53
494.20	1648.61
494.41	1775.59
494.61	1771.49
494.82	1722.34
495.02	1624.04
495.23	1753.06
495.44	1742.82
495.64	1705.96
495.85	1679.33
496.05	1697.77
496.26	1705.96
496.47	1685.48
496.67	1679.33
496.88	1763.30
497.08	1662.95
497.29	1708.01
497.49	1755.11
497.70	1658.85
497.91	1630.18
498.11	1789.92
498.32	1757.16
498.52	1734.63
498.73	1687.53
498.93	1685.48
499.14	1744.87
499.34	1679.33
499.55	1755.11
499.76	1685.48
499.96	1822.69
500.17	1759.21
500.37	1748.97
500.58	1669.09
500.78	1624.04
500.99	1751.01
501.19	1673.19
501.40	1857.51
501.60	1601.51
501.81	1681.38
502.02	1699.81
502.22	1632.23
502.43	1724.39
502.63	1830.88
502.84	1708.01
503.04	1712.10
503.25	1710.05
503.45	1732.58
503.66	1662.95
503.86	1761.25
504.07	1753.06
504.27	1660.90
504.48	1693.67
504.68	1781.73
504.89	1802.21
505.09	1556.46
505.30	1658.85
505.50	1757.16
505.71	1658.85
505.91	1726.44
506.12	1685.48
506.32	1691.62
506.53	1630.18
506.73	1746.92
506.94	1658.85
507.14	1658.85
507.35	1761.25
507.55	1662.95
507.76	1640.42
507.96	1585.13
508.17	1781.73
508.37	1662.95
508.58	1763.30
508.78	1734.63
508.99	1791.97
509.19	1734.63
509.40	1744.87
509.60	1763.30
509.81	1800.16
510.01	1691.62
510.22	1630.18
510.42	1689.57
510.63	1683.43
510.83	1689.57
511.04	1634.28
511.24	1712.10
511.44	1708.01
511.65	1658.85
511.85	1753.06
512.06	1712.10
512.26	1677.29
512.47	1820.64
512.67	1658.85
512.88	1742.82
513.08	1587.18
513.29	1787.88
513.49	1650.66
513.69	1617.90
513.90	1656.81
514.10	1781.73
514.31	1718.25
514.51	1748.97
514.72	1642.47
514.92	1716.20
515.13	1615.85
515.33	1591.27
515.53	1697.77
515.74	1748.97
515.94	1751.01
516.15	1861.60
516.35	1624.04
516.56	1699.81
516.76	1605.61
516.96	1708.01
517.17	1759.21
517.37	1681.38
517.58	1669.09
517.78	1720.29
517.99	1699.81
518.19	1798.12
518.39	1701.86
518.60	1804.26
518.80	1654.76
519.01	1736.68
519.21	1716.20
519.41	1748.97
519.62	1662.95
519.82	1740.77
520.03	1669.09
520.23	1689.57
520.43	1621.99
520.64	1712.10
520.84	1773.54
521.05	1642.47
521.25	1720.29
521.45	1613.80
521.66	1689.57
521.86	1777.64
522.07	1705.96
522.27	1701.86
522.47	1650.66
522.68	1695.72
522.88	1681.38
523.08	1791.97
523.29	1589.22
523.49	1636.33
523.70	1691.62
523.90	1615.85
524.10	1689.57
524.31	1601.51
524.51	1560.55
524.71	1736.68
524.92	1755.11
525.12	1509.35
525.33	1617.90
525.53	1673.19
525.73	1746.92
525.94	1677.29
526.14	1628.14
526.34	1667.05
526.55	1685.48
526.75	1753.06
526.95	1839.08
527.16	1658.85
527.36	1755.11
527.56	1667.05
527.77	1638.38
527.97	1808.36
528.17	1679.33
528.38	1703.91
528.58	1695.72
528.78	1708.01
528.99	1591.27
529.19	1630.18
529.39	1593.32
529.60	1646.57
529.80	1597.42
530.00	1673.19
530.21	1726.44
530.41	1665.00
530.61	1755.11
530.82	1761.25
531.02	1658.85
531.22	1746.92
531.43	1730.53
531.63	1732.58
531.83	1654.76
532.04	1763.30
532.24	1679.33
532.44	1609.70
532.64	1789.92
532.85	1669.09
533.05	1716.20
533.25	1626.09
533.46	1718.25
533.66	1703.91
533.86	1654.76
534.07	1759.21
534.27	1708.01
534.47	1716.20
534.67	1730.53
534.88	1658.85
535.08	1710.05
535.28	1755.11
535.49	1665.00
535.69	1871.84
535.89	1791.97
536.09	1724.39
536.30	1708.01
536.50	1605.61
536.70	1830.88
536.91	1667.05
537.11	1791.97
537.31	1675.24
537.51	1691.62
537.72	1714.15
537.92	1687.53
538.12	1726.44
538.32	1779.68
538.53	1652.71
538.73	1730.53
538.93	1667.05
539.13	1640.42
539.34	1751.01
539.54	1669.09
539.74	1771.49
539.94	1650.66
540.15	1808.36
540.35	1759.21
540.55	1724.39
540.75	1662.95
540.96	1722.34
541.16	1716.20
541.36	1705.96
541.56	1748.97
541.77	1755.11
541.97	1753.06
542.17	1636.33
542.37	1761.25
542.58	1705.96
542.78	1744.87
542.98	1665.00
543.18	1712.10
543.38	1724.39
543.59	1712.10
543.79	1630.18
543.99	1665.00
544.19	1601.51
544.40	1765.35
544.60	1703.91
544.80	1748.97
545.00	1660.90
545.20	1767.40
545.41	1693.67
545.61	1677.29
545.81	1689.57
546.01	1708.01
546.21	1677.29
546.42	1675.24
546.62	1777.64
546.82	1695.72
547.02	1572.84
547.22	1732.58
547.43	1693.67
547.63	1722.34
547.83	1695.72
548.03	1689.57
548.23	1859.56
548.44	1720.29
548.64	1628.14
548.84	1652.71
549.04	1611.75
549.24	1738.73
549.45	1916.90
549.65	1683.43
549.85	1728.49
550.05	1691.62
550.25	1572.84
550.45	1794.02
550.66	1669.09
550.86	1626.09
551.06	1705.96
551.26	1630.18
551.46	1703.91
551.66	1738.73
551.87	1751.01
552.07	1712.10
552.27	1732.58
552.47	1865.70
552.67	1642.47
552.87	1642.47
553.07	1685.48
553.28	1777.64
553.48	1640.42
553.68	1662.95
553.88	1773.54
554.08	1685.48
554.28	1626.09
554.48	1654.76
554.69	1683.43
554.89	1601.51
555.09	1636.33
555.29	1626.09
555.49	1761.25
555.69	1728.49
555.89	1691.62
556.10	1648.61
556.30	1730.53
556.50	1728.49
556.70	1722.34
556.90	1708.01
557.10	1785.83
557.30	1722.34
557.50	1656.81
557.70	1654.76
557.91	1638.38
558.11	1634.28
558.31	1794.02
558.51	1705.96
558.71	1736.68
558.91	1660.90
559.11	1601.51
559.31	1660.90
559.51	1703.91
559.72	1781.73
559.92	1626.09
560.12	1662.95
560.32	1712.10
560.52	1722.34
560.72	1718.25
560.92	1787.88
561.12	1716.20
561.32	1675.24
561.52	1611.75
561.72	1943.52
561.93	1753.06
562.13	1679.33
562.33	1648.61
562.53	1669.09
562.73	1669.09
562.93	1699.81
563.13	1697.77
563.33	1779.68
563.53	1648.61
563.73	1720.29
563.93	1740.77
564.13	1787.88
564.33	1777.64
564.53	1652.71
564.74	1716.20
564.94	1724.39
565.14	1757.16
565.34	1716.20
565.54	1716.20
565.74	1656.81
565.94	1662.95
566.14	1691.62
566.34	1667.05
566.54	1728.49
566.74	1734.63
566.94	1665.00
567.14	1708.01
567.34	1701.86
567.54	1720.29
567.74	1769.44
567.94	1671.14
568.14	1701.86
568.34	1834.98
568.54	1628.14
568.74	1679.33
568.94	1697.77
569.14	1787.88
569.34	1667.05
569.54	1640.42
569.75	1705.96
569.95	1675.24
570.15	1820.64
570.35	1685.48
570.55	1714.15
570.75	1662.95
570.95	1624.04
571.15	1705.96
571.35	1744.87
571.55	1617.90
571.75	1689.57
571.95	1667.05
572.15	1658.85
572.35	1693.67
572.55	1759.21
572.75	1710.05
572.95	1691.62
573.15	1701.86
573.35	1765.35
573.55	1746.92
573.75	1701.86
573.95	1830.88
574.15	1748.97
574.35	1687.53
574.55	1652.71
574.75	1656.81
574.95	1712.10
575.15	1685.48
575.34	1701.86
575.54	1697.77
575.74	1662.95
575.94	1740.77
576.14	1673.19
576.34	1781.73
576.54	1683.43
576.74	1789.92
576.94	1681.38
577.14	1665.00
577.34	1736.68
577.54	1683.43
577.74	1640.42
577.94	1656.81
578.14	1652.71
578.34	1757.16
578.54	1570.79
578.74	1699.81
578.94	1746.92
579.14	1724.39
579.34	1646.57
579.54	1738.73
579.74	1626.09
579.94	1593.32
580.13	1732.58
580.33	1673.19
580.53	1679.33
580.73	1656.81
580.93	1787.88
581.13	1691.62
581.33	1677.29
581.53	1769.44
581.73	1712.10
581.93	1658.85
582.13	1712.10
582.33	1699.81
582.53	1662.95
582.73	1673.19
582.92	1624.04
583.12	1777.64
583.32	1619.94
583.52	1697.77
583.72	1746.92
583.92	1744.87
584.12	1660.90
584.32	1789.92
584.52	1548.26
584.72	1642.47
584.92	1656.81
585.11	1689.57
585.31	1748.97
585.51	1626.09
585.71	1712.10
585.91	1810.40
586.11	1712.10
586.31	1738.73
586.51	1669.09
586.71	1740.77
586.91	1724.39
587.10	1677.29
587.30	1744.87
587.50	1701.86
587.70	1624.04
587.90	1701.86
588.10	1673.19
588.30	1736.68
588.50	1744.87
588.69	1712.10
588.89	1669.09
589.09	1738.73
589.29	1591.27
589.49	1638.38
589.69	1628.14
589.89	1734.63
590.08	1705.96
590.28	1646.57
590.48	1703.91
590.68	1757.16
590.88	1626.09
591.08	1720.29
591.28	1687.53
591.47	1658.85
591.67	1521.64
591.87	1699.81
592.07	1845.22
592.27	1613.80
592.47	1660.90
592.67	1654.76
592.86	1644.52
593.06	1673.19
593.26	1785.83
593.46	1701.86
593.66	1585.13
593.86	1728.49
594.05	1818.60
594.25	1738.73
594.45	1677.29
594.65	1716.20
594.85	1683.43
595.05	1705.96
595.24	1712.10
595.44	1644.52
595.64	1615.85
595.84	1753.06
596.04	1767.40
596.23	1632.23
596.43	1708.01
596.63	1677.29
596.83	1730.53
597.03	1738.73
597.22	1724.39
597.42	1802.21
597.62	1765.35
597.82	1728.49
598.02	1701.86
598.21	1550.31
598.41	1724.39
598.61	1632.23
598.81	1687.53
599.01	1691.62
599.20	1607.66
599.40	1617.90
599.60	1662.95
599.80	1705.96
600.00	1812.45
600.19	1744.87
600.39	1654.76
600.59	1728.49
600.79	1726.44
600.98	1724.39
601.18	1777.64
601.38	1773.54
601.58	1632.23
601.78	1748.97
601.97	1783.78
602.17	1716.20
602.37	1605.61
602.57	1738.73
602.76	1712.10
602.96	1720.29
603.16	1593.32
603.36	1665.00
603.55	1736.68
603.75	1708.01
603.95	1613.80
604.15	1765.35
604.34	1615.85
604.54	1744.87
604.74	1724.39
604.94	1716.20
605.13	1658.85
605.33	1699.81
605.53	1630.18
605.73	1736.68
605.92	1617.90
606.12	1703.91
606.32	1675.24
606.52	1810.40
606.71	1716.20
606.91	1677.29
607.11	1689.57
607.30	1746.92
607.50	1669.09
607.70	1796.07
607.90	1736.68
608.09	1589.22
608.29	1705.96
608.49	1804.26
608.68	1771.49
608.88	1628.14
609.08	1646.57
609.28	1665.00
609.47	1689.57
609.67	1724.39
609.87	1716.20
610.06	1740.77
610.26	1695.72
610.46	1857.51
610.66	1759.21
610.85	1613.80
611.05	1742.82
611.25	1687.53
611.44	1648.61
611.64	1708.01
611.84	1705.96
612.03	1626.09
612.23	1677.29
612.43	1789.92
612.62	1701.86
612.82	1728.49
613.02	1765.35
613.21	1640.42
613.41	1699.81
613.61	1691.62
613.80	1673.19
614.00	1644.52
614.20	1705.96
614.39	1697.77
614.59	1654.76
614.79	1689.57
614.98	1769.44
615.18	1705.96
615.38	1687.53
615.57	1658.85
615.77	1853.41
615.97	1681.38
616.16	1662.95
616.36	1767.40
616.56	1742.82
616.75	1640.42
616.95	1736.68
617.15	1777.64
617.34	1654.76
617.54	1869.80
617.74	1794.02
617.93	1718.25
618.13	1630.18
618.32	1621.99
618.52	1691.62
618.72	1646.57
618.91	1748.97
619.11	1767.40
619.31	1736.68
619.50	1617.90
619.70	1718.25
619.90	1722.34
620.09	1695.72
620.29	1720.29
620.48	1789.92
620.68	1740.77
620.88	1724.39
621.07	1703.91
621.27	1689.57
621.46	1697.77
621.66	1738.73
621.86	1658.85
622.05	1671.14
622.25	1755.11
622.44	1775.59
622.64	1691.62
622.84	1652.71
623.03	1667.05
623.23	1687.53
623.42	1687.53
623.62	1757.16
623.82	1728.49
624.01	1667.05
624.21	1665.00
624.40	1849.32
624.60	1624.04
624.80	1669.09
624.99	1742.82
625.19	1708.01
625.38	1736.68
625.58	1630.18
625.77	1728.49
625.97	1705.96
626.17	1658.85
626.36	1695.72
626.56	1716.20
626.75	1716.20
626.95	1746.92
627.14	1742.82
627.34	1660.90
627.54	1718.25
627.73	1712.10
627.93	1755.11
628.12	1624.04
628.32	1771.49
628.51	1642.47
628.71	1839.08
628.90	1742.82
629.10	1751.01
629.30	1732.58
629.49	1753.06
629.69	1650.66
629.88	1683.43
630.08	1726.44
630.27	1880.04
630.47	1800.16
630.66	1697.77
630.86	1765.35
631.05	1675.24
631.25	1634.28
631.44	1775.59
631.64	1660.90
631.84	1591.27
632.03	1824.74
632.23	1654.76
632.42	1751.01
632.62	1581.03
632.81	1642.47
633.01	1714.15
633.20	1765.35
633.40	1738.73
633.59	1681.38
633.79	1673.19
633.98	1744.87
634.18	1755.11
634.37	1769.44
634.57	1728.49
634.76	1640.42
634.96	1791.97
635.15	1890.28
635.35	1716.20
635.54	1718.25
635.74	1736.68
635.93	1691.62
636.13	1677.29
636.32	1779.68
636.52	1757.16
636.71	1646.57
636.91	1722.34
637.10	1724.39
637.30	1689.57
637.49	1726.44
637.69	1740.77
637.88	1724.39
638.08	1634.28
638.27	1691.62
638.46	1689.57
638.66	1624.04
638.85	1730.53
639.05	1693.67
639.24	1789.92
639.44	1724.39
639.63	1748.97
639.83	1712.10
640.02	1691.62
640.22	1671.14
640.41	1558.50
640.61	1730.53
640.80	1691.62
640.99	1689.57
641.19	1800.16
641.38	1775.59
641.58	1695.72
641.77	1732.58
641.97	1574.89
642.16	1714.15
642.36	1767.40
642.55	1810.40
642.74	1759.21
642.94	1716.20
643.13	1716.20
643.33	1720.29
643.52	1699.81
643.72	1714.15
643.91	1722.34
644.10	1806.31
644.30	1642.47
644.49	1671.14
644.69	1728.49
644.88	1699.81
645.08	1738.73
645.27	1722.34
645.46	1679.33
645.66	1746.92
645.85	1748.97
646.05	1802.21
646.24	1679.33
646.43	1673.19
646.63	1826.79
646.82	1697.77
647.02	1763.30
647.21	1755.11
647.40	1609.70
647.60	1662.95
647.79	1732.58
647.99	1601.51
648.18	1638.38
648.37	1763.30
648.57	1722.34
648.76	1730.53
648.96	1671.14
649.15	1650.66
649.34	1722.34
649.54	1654.76
649.73	1630.18
649.92	1710.05
650.12	1751.01
650.31	1712.10
650.51	1859.56
650.70	1697.77
650.89	1654.76
651.09	1787.88
651.28	1783.78
651.47	1601.51
651.67	1728.49
651.86	1804.26
652.06	1613.80
652.25	1708.01
652.44	1585.13
652.64	1683.43
652.83	1724.39
653.02	1703.91
653.22	1759.21
653.41	1636.33
653.60	1658.85
653.80	1683.43
653.99	1746.92
654.18	1617.90
654.38	1693.67
654.57	1716.20
654.76	1658.85
654.96	1677.29
655.15	1593.32
655.34	1691.62
655.54	1550.31
655.73	1734.63
655.92	1636.33
656.12	1644.52
656.31	1771.49
656.50	1722.34
656.70	1646.57
656.89	1566.70
657.08	1599.46
657.28	1705.96
657.47	1656.81
657.66	1679.33
657.86	1601.51
658.05	1742.82
658.24	1714.15
658.43	1777.64
658.63	1609.70
658.82	1791.97
659.01	1744.87
659.21	1714.15
659.40	1648.61
659.59	1652.71
659.79	1693.67
659.98	1812.45
660.17	1673.19
660.36	1716.20
660.56	1697.77
660.75	1716.20
660.94	1761.25
661.14	1650.66
661.33	1662.95
661.52	1689.57
661.71	1679.33
661.91	1621.99
662.10	1724.39
662.29	1665.00
662.49	1720.29
662.68	1595.37
662.87	1720.29
663.06	1773.54
663.26	1681.38
663.45	1830.88
663.64	1742.82
663.83	1783.78
664.03	1765.35
664.22	1714.15
664.41	1812.45
664.60	1738.73
664.80	1621.99
664.99	1763.30
665.18	1769.44
665.37	1712.10
665.57	1753.06
665.76	1699.81
665.95	1687.53
666.14	1648.61
666.34	1667.05
666.53	1646.57
666.72	1621.99
666.91	1646.57
667.11	1681.38
667.30	1789.92
667.49	1644.52
667.68	1789.92
667.87	1757.16
668.07	1806.31
668.26	1658.85
668.45	1587.18
668.64	1648.61
668.84	1828.84
669.03	1642.47
669.22	1820.64
669.41	1802.21
669.60	1568.74
669.80	1724.39
669.99	1597.42
670.18	1697.77
670.37	1818.60
670.57	1767.40
670.76	1765.35
670.95	1781.73
671.14	1667.05
671.33	1644.52
671.53	1716.20
671.72	1785.83
671.91	1806.31
672.10	1708.01
672.29	1687.53
672.48	1626.09
672.68	1740.77
672.87	1626.09
673.06	1687.53
673.25	1675.24
673.44	1730.53
673.64	1619.94
673.83	1771.49
674.02	1748.97
674.21	1773.54
674.40	1667.05
674.59	1779.68
674.79	1634.28
674.98	1777.64
675.17	1822.69
675.36	1589.22
675.55	1695.72
675.74	1654.76
675.94	1765.35
676.13	1720.29
676.32	1662.95
676.51	1689.57
676.70	1591.27
676.89	1744.87
677.08	1634.28
677.28	1882.08
677.47	1699.81
677.66	1628.14
677.85	1601.51
678.04	1716.20
678.23	1779.68
678.42	1691.62
678.62	1626.09
678.81	1732.58
679.00	1705.96
679.19	1777.64
679.38	1730.53
679.57	1691.62
679.76	1677.29
679.96	1705.96
680.15	1695.72
680.34	1609.70
680.53	1753.06
680.72	1746.92
680.91	1654.76
681.10	1773.54
681.29	1687.53
681.48	1785.83
681.68	1703.91
681.87	1773.54
682.06	1767.40
682.25	1730.53
682.44	1595.37
682.63	1812.45
682.82	1574.89
683.01	1742.82
683.20	1646.57
683.39	1783.78
683.59	1716.20
683.78	1656.81
683.97	1665.00
684.16	1548.26
684.35	1568.74
684.54	1744.87
684.73	1609.70
684.92	1605.61
685.11	1843.17
685.30	1753.06
685.49	1679.33
685.69	1802.21
685.88	1619.94
686.07	1675.24
686.26	1722.34
686.45	1624.04
686.64	1785.83
686.83	1714.15
687.02	1710.05
687.21	1763.30
687.40	1671.14
687.59	1837.03
687.78	1736.68
687.97	1789.92
688.16	1732.58
688.35	1681.38
688.54	1626.09
688.74	1550.31
688.93	1779.68
689.12	1681.38
689.31	1828.84
689.50	1742.82
689.69	1665.00
689.88	1650.66
690.07	1675.24
690.26	1628.14
690.45	1652.71
690.64	1656.81
690.83	1736.68
691.02	1669.09
691.21	1662.95
691.40	1603.56
691.59	1681.38
691.78	1710.05
691.97	1677.29
692.16	1677.29
692.35	1744.87
692.54	1828.84
692.73	1624.04
692.92	1861.60
693.11	1671.14
693.30	1730.53
693.49	1634.28
693.68	1732.58
693.87	1728.49
694.06	1703.91
694.25	1675.24
694.44	1626.09
694.63	1632.23
694.82	1691.62
695.01	1708.01
695.20	1697.77
695.39	1693.67
695.58	1687.53
695.77	1640.42
695.96	1662.95
696.15	1742.82
696.34	1658.85
696.53	1673.19
696.72	1716.20
696.91	1640.42
697.10	1720.29
697.29	1660.90
697.48	1851.36
697.67	1724.39
697.86	1660.90
698.05	1677.29
698.24	1679.33
698.43	1685.48
698.62	1718.25
698.81	1615.85
699.00	1763.30
699.19	1794.02
699.38	1761.25
699.57	1656.81
699.76	1744.87
699.95	1658.85
700.14	1736.68
700.32	1705.96
700.51	1730.53
700.70	1675.24
700.89	1767.40
701.08	1728.49
701.27	1677.29
701.46	1851.36
701.65	1771.49
701.84	1671.14
702.03	1609.70
702.22	1716.20
702.41	1804.26
702.60	1748.97
702.79	1771.49
702.98	1794.02
703.17	1789.92
703.35	1777.64
703.54	1673.19
703.73	1724.39
703.92	1710.05
704.11	1685.48
704.30	1607.66
704.49	1892.32
704.68	1630.18
704.87	1726.44
705.06	1816.55
705.25	1628.14
705.43	1683.43
705.62	1718.25
705.81	1726.44
706.00	1722.34
706.19	1761.25
706.38	1695.72
706.57	1837.03
706.76	1560.55
706.95	1724.39
707.14	1812.45
707.32	1679.33
707.51	1638.38
707.70	1656.81
707.89	1728.49
708.08	1681.38
708.27	1720.29
708.46	1671.14
708.65	1585.13
708.84	1757.16
709.02	1775.59
709.21	1585.13
709.40	1710.05
709.59	1669.09
709.78	1751.01
709.97	1669.09
710.16	1712.10
710.34	1665.00
710.53	1769.44
710.72	1638.38
710.91	1763.30
711.10	1615.85
711.29	1738.73
711.48	1748.97
711.66	1701.86
711.85	1701.86
712.04	1773.54
712.23	1683.43
712.42	1775.59
712.61	1753.06
712.80	1624.04
712.98	1720.29
713.17	1654.76
713.36	1697.77
713.55	1775.59
713.74	1681.38
713.93	1720.29
714.11	1642.47
714.30	1562.60
714.49	1769.44
714.68	1662.95
714.87	1648.61
715.06	1847.27
715.24	1769.44
715.43	1748.97
715.62	1626.09
715.81	1648.61
716.00	1763.30
716.18	1681.38
716.37	1658.85
716.56	1675.24
716.75	1730.53
716.94	1634.28
717.12	1695.72
717.31	1683.43
717.50	1632.23
717.69	1644.52
717.88	1748.97
718.06	1636.33
718.25	1691.62
718.44	1671.14
718.63	1796.07
718.82	1646.57
719.00	1650.66
719.19	1914.85
719.38	1632.23
719.57	1771.49
719.76	1732.58
719.94	1705.96
720.13	1730.53
720.32	1828.84
720.51	1720.29
720.69	1728.49
720.88	1748.97
721.07	1685.48
721.26	1830.88
721.44	1691.62
721.63	1714.15
721.82	1642.47
722.01	1703.91
722.20	1671.14
722.38	1656.81
722.57	1708.01
722.76	1699.81
722.95	1624.04
723.13	1681.38
723.32	1691.62
723.51	1712.10
723.70	1744.87
723.88	1759.21
724.07	1630.18
724.26	1818.60
724.44	1712.10
724.63	1740.77
724.82	1689.57
725.01	1683.43
725.19	1654.76
725.38	1687.53
725.57	1615.85
725.76	1861.60
725.94	1607.66
726.13	1679.33
726.32	1708.01
726.51	1621.99
726.69	1626.09
726.88	1701.86
727.07	1730.53
727.25	1685.48
727.44	1675.24
727.63	1671.14
727.82	1662.95
728.00	1662.95
728.19	1662.95
728.38	1681.38
728.56	1523.69
728.75	1699.81
728.94	1830.88
729.12	1697.77
729.31	1699.81
729.50	1630.18
729.69	1689.57
729.87	1617.90
730.06	1691.62
730.25	1755.11
730.43	1689.57
730.62	1660.90
730.81	1665.00
730.99	1724.39
731.18	1658.85
731.37	1699.81
731.55	1740.77
731.74	1779.68
731.93	1738.73
732.11	1667.05
732.30	1628.14
732.49	1656.81
732.67	1615.85
732.86	1636.33
733.05	1591.27
733.23	1753.06
733.42	1701.86
733.61	1679.33
733.79	1626.09
733.98	1712.10
734.17	1679.33
734.35	1701.86
734.54	1800.16
734.73	1787.88
734.91	1554.41
735.10	1689.57
735.29	1701.86
735.47	1642.47
735.66	1595.37
735.84	1800.16
736.03	1642.47
736.22	1679.33
736.40	1671.14
736.59	1593.32
736.78	1640.42
736.96	1650.66
737.15	1767.40
737.33	1722.34
737.52	1636.33
737.71	1673.19
737.89	1708.01
738.08	1679.33
738.27	1732.58
738.45	1728.49
738.64	1662.95
738.82	1634.28
739.01	1708.01
739.20	1763.30
739.38	1712.10
739.57	1708.01
739.75	1650.66
739.94	1771.49
740.13	1550.31
740.31	1755.11
740.50	1699.81
740.68	1716.20
740.87	1626.09
741.06	1763.30
741.24	1720.29
741.43	1671.14
741.61	1683.43
741.80	1740.77
741.99	1775.59
742.17	1705.96
742.36	1609.70
742.54	1638.38
742.73	1771.49
742.91	1605.61
743.10	1642.47
743.29	1710.05
743.47	1765.35
743.66	1554.41
743.84	1609.70
744.03	1708.01
744.21	1613.80
744.40	1748.97
744.59	1722.34
744.77	1636.33
744.96	1742.82
745.14	1597.42
745.33	1638.38
745.51	1712.10
745.70	1726.44
745.88	1644.52
746.07	1744.87
746.26	1658.85
746.44	1654.76
746.63	1599.46
746.81	1757.16
747.00	1720.29
747.18	1714.15
747.37	1578.98
747.55	1751.01
747.74	2033.63
747.92	1658.85
748.11	1746.92
748.29	1701.86
748.48	1701.86
748.66	1650.66
748.85	1705.96
749.03	1701.86
749.22	1617.90
749.41	1615.85
749.59	1720.29
749.78	1714.15
749.96	1568.74
750.15	1667.05
750.33	1781.73
750.52	1728.49
750.70	1708.01
750.89	1724.39
751.07	1699.81
751.26	1697.77
751.44	1642.47
751.63	1662.95
751.81	1665.00
752.00	1603.56
752.18	1654.76
752.37	1703.91
752.55	1638.38
752.74	1654.76
752.92	1693.67
753.10	1667.05
753.29	1693.67
753.47	1665.00
753.66	1585.13
753.84	1621.99
754.03	1638.38
754.21	1746.92
754.40	1691.62
754.58	1753.06
754.77	1755.11
754.95	1732.58
755.14	1642.47
755.32	1683.43
755.51	1523.69
755.69	1624.04
755.88	1642.47
756.06	1748.97
756.24	1646.57
756.43	1665.00
756.61	1708.01
756.80	1587.18
756.98	1718.25
757.17	1699.81
757.35	1691.62
757.54	1710.05
757.72	1615.85
757.90	1662.95
758.09	1695.72
758.27	1628.14
758.46	1568.74
758.64	1769.44
758.83	1699.81
759.01	1705.96
759.19	1736.68
759.38	1714.15
759.56	1662.95
759.75	1683.43
759.93	1765.35
760.12	1640.42
760.30	1667.05
760.48	1658.85
760.67	1724.39
760.85	1671.14
761.04	1646.57
761.22	1677.29
761.40	1654.76
761.59	1679.33
761.77	1656.81
761.96	1673.19
762.14	1714.15
762.32	1839.08
762.51	1607.66
762.69	1679.33
762.88	1830.88
763.06	1687.53
763.24	1732.58
763.43	1679.33
763.61	1640.42
763.80	1740.77
763.98	1839.08
764.16	1570.79
764.35	1691.62
764.53	1599.46
764.72	1619.94
764.90	1691.62
765.08	1675.24
765.27	1744.87
765.45	1644.52
765.63	1665.00
765.82	1673.19
766.00	1615.85
766.18	1644.52
766.37	1597.42
766.55	1665.00
766.74	1640.42
766.92	1638.38
767.10	1648.61
767.29	1777.64
767.47	1654.76
767.65	1732.58
767.84	1660.90
768.02	1771.49
768.20	1732.58
768.39	1660.90
768.57	1617.90
768.75	1646.57
768.94	1740.77
769.12	1658.85
769.30	1667.05
769.49	1621.99
769.67	1581.03
769.85	1732.58
770.04	1609.70
770.22	1675.24
770.40	1691.62
770.59	1607.66
770.77	1798.12
770.95	1689.57
771.14	1652.71
771.32	1615.85
771.50	1654.76
771.69	1619.94
771.87	1644.52
772.05	1748.97
772.24	1581.03
772.42	1701.86
772.60	1691.62
772.78	1779.68
772.97	1556.46
773.15	1703.91
773.33	1755.11
773.52	1595.37
773.70	1689.57
773.88	1642.47
774.07	1654.76
774.25	1658.85
774.43	1734.63
774.61	1650.66
774.80	1675.24
774.98	1763.30
775.16	1689.57
775.34	1607.66
775.53	1736.68
775.71	1687.53
775.89	1691.62
776.08	1634.28
776.26	1619.94
776.44	1650.66
776.62	1662.95
776.81	1718.25
776.99	1658.85
777.17	1634.28
777.35	1636.33
777.54	1740.77
777.72	1638.38
777.90	1607.66
778.08	1660.90
778.27	1724.39
778.45	1626.09
778.63	1599.46
778.81	1626.09
779.00	1681.38
779.18	1607.66
779.36	1738.73
779.54	1652.71
779.73	1630.18
779.91	1636.33
780.09	1599.46
780.27	1703.91
780.46	1669.09
780.64	1615.85
780.82	1662.95
781.00	1654.76
781.19	1624.04
781.37	1665.00
781.55	1742.82
781.73	1718.25
781.91	1583.08
782.10	1677.29
782.28	1755.11
782.46	1771.49
782.64	1691.62
782.82	1714.15
783.01	1671.14
783.19	1738.73
783.37	1679.33
783.55	1660.90
783.74	1716.20
783.92	1658.85
784.10	1613.80
784.28	1701.86
784.46	1689.57
784.64	1632.23
784.83	1636.33
785.01	1781.73
785.19	1773.54
785.37	1757.16
785.55	1662.95
785.74	1648.61
785.92	1722.34
786.10	1601.51
786.28	1728.49
786.46	1693.67
786.64	1681.38
786.83	1619.94
787.01	1722.34
787.19	1724.39
787.37	1781.73
787.55	1615.85
787.74	1671.14
787.92	1691.62
788.10	1746.92
788.28	1607.66
788.46	1691.62
788.64	1714.15
788.82	1789.92
789.01	1595.37
789.19	1742.82
789.37	1744.87
789.55	1642.47
789.73	1638.38
789.91	1615.85
790.09	1675.24
790.28	1679.33
790.46	1574.89
790.64	1710.05
790.82	1630.18
791.00	1628.14
791.18	1728.49
791.36	1724.39
791.55	1753.06
791.73	1722.34
791.91	1624.04
792.09	1691.62
792.27	1552.36
792.45	1712.10
792.63	1712.10
792.81	1708.01
793.00	1736.68
793.18	1755.11
793.36	1751.01
793.54	1619.94
793.72	1697.77
793.90	1648.61
794.08	1611.75
794.26	1685.48
794.44	1570.79
794.62	1630.18
794.81	1581.03
794.99	1650.66
795.17	1732.58
795.35	1626.09
795.53	1697.77
795.71	1726.44
795.89	1689.57
796.07	1671.14
796.25	1669.09
796.43	1775.59
796.61	1632.23
796.80	1634.28
796.98	1681.38
797.16	1726.44
797.34	1705.96
797.52	1638.38
797.70	1753.06
797.88	1705.96
798.06	1583.08
798.24	1695.72
798.42	1656.81
798.60	1738.73
798.78	1691.62
798.96	1742.82
799.14	1648.61
799.32	1744.87
799.51	1640.42
799.69	1667.05
799.87	1736.68
800.05	1691.62
800.23	1552.36
800.41	1671.14
800.59	1763.30
800.77	1609.70
800.95	1611.75
801.13	1726.44
801.31	1699.81
801.49	1808.36
801.67	1646.57
801.85	1621.99
802.03	1626.09
802.21	1683.43
802.39	1576.94
802.57	1574.89
802.75	1753.06
802.93	1732.58
803.11	1583.08
803.29	1740.77
803.47	1667.05
803.65	1632.23
803.83	1535.98
804.01	1603.56
804.19	1609.70
804.37	1654.76
804.55	1603.56
804.73	1658.85
804.91	1662.95
805.09	1689.57
805.27	1689.57
805.45	1675.24
805.63	1611.75
805.81	1675.24
805.99	1695.72
806.17	1671.14
806.35	1628.14
806.53	1712.10
806.71	1736.68
806.89	1624.04
807.07	1812.45
807.25	1683.43
807.43	1583.08
807.61	1839.08
807.79	1734.63
807.97	1552.36
808.15	1677.29
808.33	1728.49
808.51	1728.49
808.69	1724.39
808.87	1701.86
809.05	1589.22
809.23	1568.74
809.41	1587.18
809.59	1576.94
809.77	1765.35
809.95	1638.38
810.13	1708.01
810.31	1654.76
810.49	1705.96
810.67	1730.53
810.84	1613.80
811.02	1619.94
811.20	1636.33
811.38	1714.15
811.56	1630.18
811.74	1710.05
811.92	1574.89
812.10	1699.81
812.28	1703.91
812.46	1636.33
812.64	1673.19
812.82	1613.80
813.00	1619.94
813.18	1628.14
813.36	1628.14
813.53	1695.72
813.71	1748.97
813.89	1660.90
814.07	1568.74
814.25	1720.29
814.43	1581.03
814.61	1708.01
814.79	1695.72
814.97	1656.81
815.15	1742.82
815.33	1593.32
815.50	1640.42
815.68	1621.99
815.86	1720.29
816.04	1673.19
816.22	1568.74
816.40	1650.66
816.58	1660.90
816.76	1599.46
816.94	1667.05
817.11	1638.38
817.29	1638.38
817.47	1658.85
817.65	1636.33
817.83	1654.76
818.01	1669.09
818.19	1564.65
818.37	1650.66
818.54	1726.44
818.72	1660.90
818.90	1662.95
819.08	1636.33
819.26	1734.63
819.44	1699.81
819.62	1705.96
819.80	1650.66
819.97	1849.32
820.15	1617.90
820.33	1589.22
820.51	1603.56
820.69	1691.62
820.87	1681.38
821.05	1757.16
821.22	1621.99
821.40	1693.67
821.58	1624.04
821.76	1628.14
821.94	1644.52
822.12	1691.62
822.29	1710.05
822.47	1689.57
822.65	1742.82
822.83	1601.51
823.01	1710.05
823.19	1621.99
823.36	1595.37
823.54	1552.36
823.72	1681.38
823.90	1746.92
824.08	1601.51
824.25	1714.15
824.43	1667.05
824.61	1613.80
824.79	1683.43
824.97	1609.70
825.15	1716.20
825.32	1662.95
825.50	1693.67
825.68	1636.33
825.86	1685.48
826.04	1656.81
826.21	1757.16
826.39	1691.62
826.57	1673.19
826.75	1632.23
826.93	1671.14
827.10	1697.77
827.28	1626.09
827.46	1644.52
827.64	1660.90
827.81	1679.33
827.99	1578.98
828.17	1730.53
828.35	1693.67
828.53	1642.47
828.70	1662.95
828.88	1617.90
829.06	1597.42
829.24	1662.95
829.41	1638.38
829.59	1732.58
829.77	1685.48
829.95	1748.97
830.12	1650.66
830.30	1611.75
830.48	1681.38
830.66	1591.27
830.84	1656.81
831.01	1744.87
831.19	1562.60
831.37	1613.80
831.55	1697.77
831.72	1736.68
831.90	1636.33
832.08	1724.39
832.25	1744.87
832.43	1638.38
832.61	1718.25
832.79	1542.12
832.96	1644.52
833.14	1691.62
833.32	1699.81
833.50	1613.80
833.67	1718.25
833.85	1519.59
834.03	1583.08
834.20	1703.91
834.38	1748.97
834.56	1720.29
834.74	1630.18
834.91	1685.48
835.09	1712.10
835.27	1648.61
835.44	1646.57
835.62	1542.12
835.80	1642.47
835.98	1642.47
836.15	1691.62
836.33	1662.95
836.51	1566.70
836.68	1597.42
836.86	1656.81
837.04	1656.81
837.21	1787.88
837.39	1673.19
837.57	1751.01
837.75	1677.29
837.92	1699.81
838.10	1589.22
838.28	1599.46
838.45	1605.61
838.63	1554.41
838.81	1708.01
838.98	1642.47
839.16	1636.33
839.34	1652.71
839.51	1662.95
839.69	1636.33
839.87	1703.91
840.04	1669.09
840.22	1916.90
840.40	1703.91
840.57	1546.22
840.75	1634.28
840.93	1619.94
841.10	1638.38
841.28	1667.05
841.46	1708.01
841.63	1685.48
841.81	1656.81
841.98	1574.89
842.16	1755.11
842.34	1708.01
842.51	1517.54
842.69	1673.19
842.87	1679.33
843.04	1621.99
843.22	1621.99
843.40	1544.17
843.57	1581.03
843.75	1609.70
843.92	1693.67
844.10	1728.49
844.28	1697.77
844.45	1568.74
844.63	1654.76
844.81	1695.72
844.98	1798.12
845.16	1701.86
845.33	1671.14
845.51	1617.90
845.69	1671.14
845.86	1724.39
846.04	1601.51
846.21	1656.81
846.39	1642.47
846.57	1552.36
846.74	1615.85
846.92	1699.81
847.09	1656.81
847.27	1679.33
847.45	1662.95
847.62	1669.09
847.80	1638.38
847.97	1656.81
848.15	1601.51
848.32	1550.31
848.50	1705.96
848.68	1658.85
848.85	1693.67
849.03	1566.70
849.20	1597.42
849.38	1642.47
849.56	1669.09
849.73	1576.94
849.91	1650.66
850.08	1705.96
850.26	1533.93
850.43	1607.66
850.61	1699.81
850.78	1601.51
850.96	1667.05
851.14	1599.46
851.31	1806.31
851.49	1646.57
851.66	1699.81
851.84	1585.13
852.01	1644.52
852.19	1562.60
852.36	1699.81
852.54	1621.99
852.71	1615.85
852.89	1658.85
853.07	1585.13
853.24	1605.61
853.42	1533.93
853.59	1671.14
853.77	1609.70
853.94	1650.66
854.12	1765.35
854.29	1533.93
854.47	1667.05
854.64	1681.38
854.82	1712.10
854.99	1734.63
855.17	1658.85
855.34	1535.98
855.52	1650.66
855.69	1808.36
855.87	1667.05
856.04	1619.94
856.22	1761.25
856.39	1605.61
856.57	1671.14
856.74	1595.37
856.92	1744.87
857.09	1679.33
857.27	1617.90
857.44	1671.14
857.62	1716.20
857.79	1658.85
857.97	1718.25
858.14	1634.28
858.32	1656.81
858.49	1630.18
858.67	1695.72
858.84	1595.37
859.02	1753.06
859.19	1593.32
859.37	1558.50
859.54	1634.28
859.72	1613.80
859.89	1581.03
860.06	1558.50
860.24	1621.99
860.41	1697.77
860.59	1642.47
860.76	1687.53
860.94	1556.46
861.11	1626.09
861.29	1693.67
861.46	1554.41
861.64	1591.27
861.81	1693.67
861.98	1562.60
862.16	1609.70
862.33	1581.03
862.51	1615.85
862.68	1640.42
862.86	1644.52
863.03	1609.70
863.21	1601.51
863.38	1658.85
863.55	1644.52
863.73	1718.25
863.90	1724.39
864.08	1597.42
864.25	1607.66
864.43	1687.53
864.60	1683.43
864.77	1671.14
864.95	1773.54
865.12	1576.94
865.30	1687.53
865.47	1669.09
865.64	1716.20
865.82	1685.48
865.99	1740.77
866.17	1650.66
866.34	1732.58
866.51	1583.08
866.69	1660.90
866.86	1783.78
867.04	1693.67
867.21	1691.62
867.38	1540.07
867.56	1681.38
867.73	1658.85
867.91	1679.33
868.08	1640.42
868.25	1624.04
868.43	1658.85
868.60	1673.19
868.78	1626.09
868.95	1660.90
869.12	1722.34
869.30	1538.02
869.47	1699.81
869.64	1630.18
869.82	1677.29
869.99	1646.57
870.16	1675.24
870.34	1716.20
870.51	1839.08
870.69	1535.98
870.86	1742.82
871.03	1703.91
871.21	1671.14
871.38	1847.27
871.55	1683.43
871.73	1665.00
871.90	1607.66
872.07	1640.42
872.25	1517.54
872.42	1576.94
872.59	1568.74
872.77	1646.57
872.94	1626.09
873.11	1675.24
873.29	1679.33
873.46	1638.38
873.63	1671.14
873.81	1615.85
873.98	1671.14
874.15	1646.57
874.33	1640.42
874.50	1669.09
874.67	1574.89
874.85	1665.00
875.02	1601.51
875.19	1630.18
875.37	1671.14
875.54	1605.61
875.71	1652.71
875.88	1673.19
876.06	1673.19
876.23	1683.43
876.40	1736.68
876.58	1562.60
876.75	1658.85
876.92	1626.09
877.10	1705.96
877.27	1673.19
877.44	1605.61
877.61	1615.85
877.79	1691.62
877.96	1673.19
878.13	1665.00
878.31	1644.52
878.48	1675.24
878.65	1722.34
878.82	1642.47
879.00	1617.90
879.17	1695.72
879.34	1617.90
879.51	1562.60
879.69	1675.24
879.86	1501.16
880.03	1601.51
880.21	1654.76
880.38	1636.33
880.55	1656.81
880.72	1632.23
880.90	1607.66
881.07	1636.33
881.24	1757.16
881.41	1683.43
881.59	1615.85
881.76	1667.05
881.93	1720.29
882.10	1693.67
882.28	1658.85
882.45	1648.61
882.62	1615.85
882.79	1728.49
882.96	1617.90
883.14	1636.33
883.31	1691.62
883.48	1568.74
883.65	1677.29
883.83	1642.47
884.00	1632.23
884.17	1673.19
884.34	1685.48
884.51	1751.01
884.69	1667.05
884.86	1660.90
885.03	1621.99
885.20	1535.98
885.38	1703.91
885.55	1656.81
885.72	1710.05
885.89	1593.32
886.06	1699.81
886.24	1685.48
886.41	1632.23
886.58	1712.10
886.75	1705.96
886.92	1615.85
887.10	1632.23
887.27	1601.51
887.44	1712.10
887.61	1710.05
887.78	1677.29
887.95	1738.73
888.13	1581.03
888.30	1654.76
888.47	1701.86
888.64	1640.42
888.81	1777.64
888.99	1548.26
889.16	1593.32
889.33	1628.14
889.50	1609.70
889.67	1703.91
889.84	1595.37
890.01	1681.38
890.19	1794.02
890.36	1665.00
890.53	1691.62
890.70	1638.38
890.87	1624.04
891.04	1652.71
891.22	1636.33
891.39	1603.56
891.56	1671.14
891.73	1671.14
891.90	1652.71
892.07	1544.17
892.24	1726.44
892.42	1542.12
892.59	1656.81
892.76	1722.34
892.93	1617.90
893.10	1609.70
893.27	1634.28
893.44	1581.03
893.61	1644.52
893.79	1640.42
893.96	1605.61
894.13	1626.09
894.30	1570.79
894.47	1726.44
894.64	1755.11
894.81	1652.71
894.98	1617.90
895.15	1621.99
895.33	1701.86
895.50	1574.89
895.67	1650.66
895.84	1630.18
896.01	1632.23
896.18	1484.78
896.35	1740.77
896.52	1638.38
896.69	1683.43
896.86	1673.19
897.04	1734.63
897.21	1632.23
897.38	1640.42
897.55	1732.58
897.72	1695.72
897.89	1691.62
898.06	1783.78
898.23	1617.90
898.40	1691.62
898.57	1630.18
898.74	1597.42
898.91	1597.42
899.08	1607.66
899.26	1662.95
899.43	1787.88
899.60	1613.80
899.77	1660.90
899.94	1581.03
900.11	1644.52
900.28	1699.81
900.45	1683.43
900.62	1587.18
900.79	1669.09
900.96	1675.24
901.13	1562.60
901.30	1634.28
901.47	1615.85
901.64	1595.37
901.81	1640.42
901.98	1544.17
902.15	1705.96
902.32	1572.84
902.49	1677.29
902.66	1689.57
902.83	1656.81
903.01	1591.27
903.18	1650.66
903.35	1642.47
903.52	1662.95
903.69	1689.57
903.86	1687.53
904.03	1591.27
904.20	1716.20
904.37	1769.44
904.54	1519.59
904.71	1689.57
904.88	1660.90
905.05	1509.35
905.22	1630.18
905.39	1556.46
905.56	1583.08
905.73	1556.46
905.90	1687.53
906.07	1634.28
906.24	1691.62
906.41	1650.66
906.58	1650.66
906.75	1544.17
906.92	1568.74
907.09	1632.23
907.26	1652.71
907.43	1544.17
907.60	1638.38
907.77	1662.95
907.93	1695.72
908.10	1585.13
908.27	1683.43
908.44	1646.57
908.61	1613.80
908.78	1591.27
908.95	1751.01
909.12	1560.55
909.29	1630.18
909.46	1560.55
909.63	1781.73
909.80	1683.43
909.97	1714.15
910.14	1607.66
910.31	1523.69
910.48	1681.38
910.65	1619.94
910.82	1624.04
910.99	1679.33
911.16	1650.66
911.33	1609.70
911.50	1621.99
911.66	1540.07
911.83	1748.97
912.00	1583.08
912.17	1587.18
912.34	1544.17
912.51	1642.47
912.68	1603.56
912.85	1654.76
913.02	1669.09
913.19	1587.18
913.36	1660.90
913.53	1742.82
913.70	1589.22
913.86	1667.05
914.03	1669.09
914.20	1640.42
914.37	1642.47
914.54	1634.28
914.71	1624.04
914.88	1751.01
915.05	1624.04
915.22	1617.90
915.39	1675.24
915.55	1648.61
915.72	1538.02
915.89	1591.27
916.06	1644.52
916.23	1574.89
916.40	1669.09
916.57	1601.51
916.74	1722.34
916.91	1621.99
917.07	1556.46
917.24	1611.75
917.41	1605.61
917.58	1667.05
917.75	1593.32
917.92	1509.35
918.09	1648.61
918.26	1705.96
918.42	1624.04
918.59	1697.77
918.76	1624.04
918.93	1578.98
919.10	1634.28
919.27	1531.88
919.44	1759.21
919.60	1650.66
919.77	1644.52
919.94	1611.75
920.11	1722.34
920.28	1753.06
920.45	1583.08
920.61	1568.74
920.78	1667.05
920.95	1646.57
921.12	1677.29
921.29	1646.57
921.46	1650.66
921.62	1533.93
921.79	1650.66
921.96	1679.33
922.13	1617.90
922.30	1634.28
922.47	1613.80
922.63	1656.81
922.80	1656.81
922.97	1595.37
923.14	1482.73
923.31	1507.30
923.47	1705.96
923.64	1730.53
923.81	1609.70
923.98	1720.29
924.15	1578.98
924.32	1716.20
924.48	1675.24
924.65	1773.54
924.82	1585.13
924.99	1568.74
925.15	1550.31
925.32	1757.16
925.49	1613.80
925.66	1677.29
925.83	1683.43
925.99	1613.80
926.16	1689.57
926.33	1681.38
926.50	1484.78
926.67	1675.24
926.83	1595.37
927.00	1665.00
927.17	1621.99
927.34	1589.22
927.50	1724.39
927.67	1820.64
927.84	1714.15
928.01	1603.56
928.17	1611.75
928.34	1644.52
928.51	1628.14
928.68	1574.89
928.84	1626.09
929.01	1611.75
929.18	1632.23
929.35	1540.07
929.51	1648.61
929.68	1628.14
929.85	1595.37
930.02	1578.98
930.18	1619.94
930.35	1734.63
930.52	1667.05
930.69	1703.91
930.85	1724.39
931.02	1613.80
931.19	1632.23
931.36	1628.14
931.52	1687.53
931.69	1665.00
931.86	1669.09
932.02	1615.85
932.19	1640.42
932.36	1691.62
932.53	1681.38
932.69	1617.90
932.86	1708.01
933.03	1603.56
933.19	1497.07
933.36	1626.09
933.53	1693.67
933.70	1691.62
933.86	1665.00
934.03	1673.19
934.20	1591.27
934.36	1761.25
934.53	1599.46
934.70	1546.22
934.86	1617.90
935.03	1650.66
935.20	1587.18
935.36	1654.76
935.53	1603.56
935.70	1638.38
935.86	1617.90
936.03	1554.41
936.20	1517.54
936.36	1615.85
936.53	1624.04
936.70	1591.27
936.86	1726.44
937.03	1619.94
937.20	1560.55
937.36	1699.81
937.53	1568.74
937.70	1591.27
937.86	1560.55
938.03	1615.85
938.20	1761.25
938.36	1605.61
938.53	1736.68
938.70	1564.65
938.86	1595.37
939.03	1658.85
939.20	1636.33
939.36	1574.89
939.53	1617.90
939.70	1884.13
939.86	1652.71
940.03	1658.85
940.19	1527.78
940.36	1658.85
940.53	1671.14
940.69	1632.23
940.86	1710.05
941.03	1675.24
941.19	1597.42
941.36	1640.42
941.52	1693.67
941.69	1636.33
941.86	1673.19
942.02	1697.77
942.19	1644.52
942.35	1732.58
942.52	1671.14
942.69	1593.32
942.85	1644.52
943.02	1605.61
943.18	1677.29
943.35	1529.83
943.52	1689.57
943.68	1558.50
943.85	1695.72
944.01	1591.27
944.18	1593.32
944.35	1708.01
944.51	1642.47
944.68	1542.12
944.84	1679.33
945.01	1607.66
945.17	1665.00
945.34	1624.04
945.51	1710.05
945.67	1587.18
945.84	1613.80
946.00	1572.84
946.17	1660.90
946.33	1619.94
946.50	1667.05
946.67	1691.62
946.83	1478.63
947.00	1646.57
947.16	1556.46
947.33	1644.52
947.49	1568.74
947.66	1572.84
947.82	1673.19
947.99	1583.08
948.16	1714.15
948.32	1591.27
948.49	1675.24
948.65	1675.24
948.82	1644.52
948.98	1621.99
949.15	1570.79
949.31	1630.18
949.48	1581.03
949.64	1636.33
949.81	1652.71
949.97	1607.66
950.14	1656.81
950.30	1550.31
950.47	1650.66
950.63	1607.66
950.80	1638.38
950.96	1591.27
951.13	1695.72
951.30	1607.66
951.46	1634.28
951.63	1691.62
951.79	1630.18
951.96	1671.14
952.12	1683.43
952.29	1703.91
952.45	1564.65
952.62	1638.38
952.78	1652.71
952.94	1634.28
953.11	1589.22
953.27	1482.73
953.44	1724.39
953.60	1695.72
953.77	1716.20
953.93	1693.67
954.10	1646.57
954.26	1722.34
954.43	1593.32
954.59	1755.11
954.76	1724.39
954.92	1703.91
955.09	1626.09
955.25	1644.52
955.42	1550.31
955.58	1742.82
955.75	1634.28
955.91	1648.61
956.07	1646.57
956.24	1634.28
956.40	1585.13
956.57	1697.77
956.73	1568.74
956.90	1703.91
957.06	1585.13
957.23	1642.47
957.39	1585.13
957.56	1624.04
957.72	1527.78
957.88	1597.42
958.05	1675.24
958.21	1644.52
958.38	1638.38
958.54	1640.42
958.71	1732.58
958.87	1599.46
959.03	1603.56
959.20	1611.75
959.36	1568.74
959.53	1689.57
959.69	1595.37
959.85	1650.66
960.02	1609.70
960.18	1605.61
960.35	1636.33
960.51	1654.76
960.68	1490.92
960.84	1603.56
961.00	1599.46
961.17	1523.69
961.33	1640.42
961.50	1621.99
961.66	1658.85
961.82	1488.87
961.99	1669.09
962.15	1660.90
962.31	1640.42
962.48	1656.81
962.64	1757.16
962.81	1652.71
962.97	1662.95
963.13	1624.04
963.30	1636.33
963.46	1564.65
963.62	1550.31
963.79	1648.61
963.95	1609.70
964.12	1720.29
964.28	1697.77
964.44	1626.09
964.61	1695.72
964.77	1574.89
964.93	1716.20
965.10	1572.84
965.26	1589.22
965.42	1583.08
965.59	1564.65
965.75	1648.61
965.92	1617.90
966.08	1675.24
966.24	1632.23
966.41	1583.08
966.57	1560.55
966.73	1654.76
966.90	1710.05
967.06	1585.13
967.22	1607.66
967.39	1587.18
967.55	1634.28
967.71	1669.09
967.88	1617.90
968.04	1644.52
968.20	1583.08
968.37	1576.94
968.53	1585.13
968.69	1654.76
968.85	1658.85
969.02	1671.14
969.18	1683.43
969.34	1617.90
969.51	1662.95
969.67	1742.82
969.83	1589.22
970.00	1687.53
970.16	1648.61
970.32	1644.52
970.48	1765.35
970.65	1624.04
970.81	1644.52
970.97	1607.66
971.14	1626.09
971.30	1738.73
971.46	1665.00
971.63	1662.95
971.79	1732.58
971.95	1619.94
972.11	1591.27
972.28	1624.04
972.44	1794.02
972.60	1521.64
972.76	1654.76
972.93	1632.23
973.09	1673.19
973.25	1679.33
973.42	1603.56
973.58	1617.90
973.74	1607.66
973.90	1656.81
974.07	1630.18
974.23	1595.37
974.39	1609.70
974.55	1613.80
974.72	1640.42
974.88	1570.79
975.04	1689.57
975.20	1679.33
975.37	1650.66
975.53	1642.47
975.69	1656.81
975.85	1564.65
976.01	1626.09
976.18	1613.80
976.34	1773.54
976.50	1742.82
976.66	1716.20
976.83	1687.53
976.99	1587.18
977.15	1644.52
977.31	1525.74
977.47	1683.43
977.64	1621.99
977.80	1615.85
977.96	1642.47
978.12	1607.66
978.29	1626.09
978.45	1507.30
978.61	1607.66
978.77	1716.20
978.93	1617.90
979.10	1632.23
979.26	1624.04
979.42	1669.09
979.58	1544.17
979.74	1609.70
979.91	1691.62
980.07	1595.37
980.23	1624.04
980.39	1578.98
980.55	1630.18
980.71	1626.09
980.88	1531.88
981.04	1665.00
981.20	1587.18
981.36	1583.08
981.52	1609.70
981.68	1574.89
981.85	1642.47
982.01	1597.42
982.17	1581.03
982.33	1560.55
982.49	1738.73
982.65	1648.61
982.82	1646.57
982.98	1632.23
983.14	1462.25
983.30	1722.34
983.46	1662.95
983.62	1665.00
983.79	1648.61
983.95	1597.42
984.11	1542.12
984.27	1632.23
984.43	1650.66
984.59	1617.90
984.75	1701.86
984.91	1605.61
985.08	1628.14
985.24	1542.12
985.40	1511.40
985.56	1634.28
985.72	1685.48
985.88	1630.18
986.04	1546.22
986.20	1585.13
986.37	1652.71
986.53	1581.03
986.69	1601.51
986.85	1617.90
987.01	1621.99
987.17	1587.18
987.33	1636.33
987.49	1548.26
987.65	1712.10
987.82	1626.09
987.98	1554.41
988.14	1589.22
988.30	1640.42
988.46	1597.42
988.62	1560.55
988.78	1665.00
988.94	1693.67
989.10	1615.85
989.26	1597.42
989.42	1611.75
989.59	1591.27
989.75	1546.22
989.91	1712.10
990.07	1607.66
990.23	1609.70
990.39	1607.66
990.55	1599.46
990.71	1613.80
990.87	1669.09
991.03	1556.46
991.19	1572.84
991.35	1591.27
991.51	1634.28
991.67	1648.61
991.83	1593.32
992.00	1607.66
992.16	1660.90
992.32	1650.66
992.48	1626.09
992.64	1658.85
992.80	1660.90
992.96	1601.51
993.12	1660.90
993.28	1613.80
993.44	1605.61
993.60	1724.39
993.76	1619.94
993.92	1595.37
994.08	1675.24
994.24	1675.24
994.40	1675.24
994.56	1642.47
994.72	1550.31
994.88	1542.12
995.04	1576.94
995.20	1656.81
995.36	1568.74
995.52	1607.66
995.68	1642.47
995.84	1601.51
996.00	1628.14
996.16	1613.80
996.32	1548.26
996.48	1542.12
996.64	1746.92
996.80	1640.42
996.96	1591.27
997.12	1605.61
997.28	1595.37
997.44	1574.89
997.60	1628.14
997.76	1615.85
997.92	1681.38
998.08	1591.27
998.24	1583.08
998.40	1587.18
998.56	1669.09
998.72	1527.78
998.88	1566.70
999.04	1533.93
999.20	1648.61
999.36	1589.22
999.52	1753.06
999.68	1593.32
999.84	1654.76
1000.00	1650.66
1000.16	1662.95
1000.32	1619.94
1000.48	1755.11
1000.64	1540.07
1000.80	1576.94
1000.95	1626.09
1001.11	1613.80
1001.27	1519.59
1001.43	1626.09
1001.59	1527.78
1001.75	1609.70
1001.91	1628.14
1002.07	1662.95
1002.23	1630.18
1002.39	1529.83
1002.55	1642.47
1002.71	1615.85
1002.87	1521.64
1003.03	1572.84
1003.19	1542.12
1003.34	1740.77
1003.50	1628.14
1003.66	1638.38
1003.82	1634.28
1003.98	1546.22
1004.14	1609.70
1004.30	1546.22
1004.46	1589.22
1004.62	1624.04
1004.78	1619.94
1004.94	1708.01
1005.09	1615.85
1005.25	1667.05
1005.41	1607.66
1005.57	1511.40
1005.73	1646.57
1005.89	1621.99
1006.05	1705.96
1006.21	1630.18
1006.37	1578.98
1006.52	1535.98
1006.68	1556.46
1006.84	1730.53
1007.00	1564.65
1007.16	1650.66
1007.32	1509.35
1007.48	1669.09
1007.64	1695.72
1007.79	1523.69
1007.95	1552.36
1008.11	1642.47
1008.27	1675.24
1008.43	1615.85
1008.59	1603.56
1008.75	1703.91
1008.91	1636.33
1009.06	1566.70
1009.22	1656.81
1009.38	1591.27
1009.54	1587.18
1009.70	1568.74
1009.86	1546.22
1010.01	1673.19
1010.17	1589.22
1010.33	1656.81
1010.49	1613.80
1010.65	1677.29
1010.81	1585.13
1010.96	1626.09
1011.12	1552.36
1011.28	1560.55
1011.44	1669.09
1011.60	1638.38
1011.76	1599.46
1011.91	1601.51
1012.07	1624.04
1012.23	1562.60
1012.39	1578.98
1012.55	1589.22
1012.71	1599.46
1012.86	1589.22
1013.02	1587.18
1013.18	1648.61
1013.34	1632.23
1013.50	1718.25
1013.65	1607.66
1013.81	1533.93
1013.97	1548.26
1014.13	1669.09
1014.29	1673.19
1014.44	1673.19
1014.60	1605.61
1014.76	1601.51
1014.92	1603.56
1015.07	1624.04
1015.23	1681.38
1015.39	1621.99
1015.55	1546.22
1015.71	1581.03
1015.86	1560.55
1016.02	1527.78
1016.18	1617.90
1016.34	1667.05
1016.49	1578.98
1016.65	1615.85
1016.81	1599.46
1016.97	1599.46
1017.12	1679.33
1017.28	1533.93
1017.44	1525.74
1017.60	1601.51
1017.75	1613.80
1017.91	1460.20
1018.07	1626.09
1018.23	1755.11
1018.38	1558.50
1018.54	1642.47
1018.70	1652.71
1018.86	1605.61
1019.01	1665.00
1019.17	1589.22
1019.33	1681.38
1019.49	1617.90
1019.64	1603.56
1019.80	1636.33
1019.96	1716.20
1020.12	1605.61
1020.27	1587.18
1020.43	1617.90
1020.59	1710.05
1020.74	1615.85
1020.90	1615.85
1021.06	1552.36
1021.22	1650.66
1021.37	1609.70
1021.53	1570.79
1021.69	1593.32
1021.84	1548.26
1022.00	1599.46
1022.16	1564.65
1022.31	1540.07
1022.47	1591.27
1022.63	1712.10
1022.79	1501.16
1022.94	1648.61
1023.10	1695.72
1023.26	1626.09
1023.41	1562.60
1023.57	1644.52
1023.73	1603.56
1023.88	1687.53
1024.04	1605.61
1024.20	1458.15
1024.35	1574.89
1024.51	1650.66
1024.67	1550.31
1024.82	1681.38
1024.98	1499.11
1025.14	1621.99
1025.29	1630.18
1025.45	1675.24
1025.61	1542.12
1025.76	1656.81
1025.92	1626.09
1026.08	1671.14
1026.23	1720.29
1026.39	1624.04
1026.55	1714.15
1026.70	1556.46
1026.86	1574.89
1027.02	1609.70
1027.17	1654.76
1027.33	1605.61
1027.48	1611.75
1027.64	1650.66
1027.80	1630.18
1027.95	1695.72
1028.11	1599.46
1028.27	1665.00
1028.42	1628.14
1028.58	1646.57
1028.73	1601.51
1028.89	1570.79
1029.05	1730.53
1029.20	1636.33
>>>>>End Processed Spectral Data<<<<<
