SpectraSuite Data File
++++++++++++++++++++++++++++++++++++
Date: Fri Jun 02 14:53:27 CEST 2017
User: INFO_000
Dark Spectrum Present: No
Reference Spectrum Present: No
Number of Sampled Component Spectra: 1
Spectrometers: USB4H00879
Integration Time (usec): 80000 (USB4H00879)
Spectra Averaged: 1 (USB4H00879)
Boxcar Smoothing: 0 (USB4H00879)
Correct for Electrical Dark: No (USB4H00879)
Strobe/Lamp Enabled: No (USB4H00879)
Correct for Detector Non-linearity: No (USB4H00879)
Correct for Stray Light: No (USB4H00879)
Number of Pixels in Processed Spectrum: 3648
>>>>>Begin Processed Spectral Data<<<<<
345.13	1298.41
345.34	1298.41
345.56	1298.41
345.78	1185.77
345.99	1294.32
346.21	1695.72
346.42	1624.04
346.64	1630.18
346.86	1740.77
347.07	1699.81
347.29	1767.40
347.50	1589.22
347.72	1640.42
347.94	1769.44
348.15	1617.90
348.37	1619.94
348.59	1724.39
348.80	1675.24
349.02	1677.29
349.23	1746.92
349.45	1769.44
349.67	1818.60
349.88	1671.14
350.10	1886.18
350.31	1708.01
350.53	1695.72
350.75	1853.41
350.96	1650.66
351.18	1712.10
351.39	1677.29
351.61	1648.61
351.82	1765.35
352.04	1765.35
352.26	1691.62
352.47	1720.29
352.69	1726.44
352.90	1611.75
353.12	1818.60
353.34	1718.25
353.55	1769.44
353.77	1810.40
353.98	1681.38
354.20	1699.81
354.41	1730.53
354.63	1722.34
354.85	1894.37
355.06	1748.97
355.28	1601.51
355.49	1712.10
355.71	1673.19
355.92	1695.72
356.14	1785.83
356.35	1693.67
356.57	1716.20
356.79	1705.96
357.00	1757.16
357.22	1724.39
357.43	1662.95
357.65	1751.01
357.86	1675.24
358.08	1730.53
358.29	1730.53
358.51	1787.88
358.72	1775.59
358.94	1675.24
359.16	1677.29
359.37	1701.86
359.59	1757.16
359.80	1781.73
360.02	1724.39
360.23	1765.35
360.45	1785.83
360.66	1775.59
360.88	1626.09
361.09	1621.99
361.31	1755.11
361.52	1771.49
361.74	1798.12
361.95	1751.01
362.17	1626.09
362.38	1773.54
362.60	1767.40
362.81	1736.68
363.03	1642.47
363.24	1671.14
363.46	1839.08
363.67	1798.12
363.89	1830.88
364.10	1751.01
364.32	1730.53
364.53	1738.73
364.75	1630.18
364.96	1789.92
365.18	1726.44
365.39	1734.63
365.61	1648.61
365.82	1814.50
366.04	1712.10
366.25	1640.42
366.47	1812.45
366.68	1685.48
366.90	1615.85
367.11	1712.10
367.33	1720.29
367.54	1810.40
367.76	1685.48
367.97	1779.68
368.19	1732.58
368.40	1679.33
368.62	1611.75
368.83	1712.10
369.05	1673.19
369.26	1667.05
369.48	1617.90
369.69	1689.57
369.91	1724.39
370.12	1683.43
370.33	1806.31
370.55	1599.46
370.76	1720.29
370.98	1810.40
371.19	1730.53
371.41	1761.25
371.62	1705.96
371.84	1687.53
372.05	1726.44
372.27	1716.20
372.48	1753.06
372.69	1708.01
372.91	1765.35
373.12	1769.44
373.34	1665.00
373.55	1701.86
373.77	1740.77
373.98	1683.43
374.20	1796.07
374.41	1761.25
374.62	1656.81
374.84	1765.35
375.05	1744.87
375.27	1732.58
375.48	1687.53
375.70	1708.01
375.91	1710.05
376.12	1777.64
376.34	1718.25
376.55	1687.53
376.77	1679.33
376.98	1662.95
377.19	1679.33
377.41	1603.56
377.62	1720.29
377.84	1765.35
378.05	1820.64
378.27	1722.34
378.48	1791.97
378.69	1900.52
378.91	1773.54
379.12	1777.64
379.34	1712.10
379.55	1757.16
379.76	1742.82
379.98	1642.47
380.19	1718.25
380.41	1755.11
380.62	1812.45
380.83	1665.00
381.05	1656.81
381.26	1920.99
381.47	1662.95
381.69	1716.20
381.90	1789.92
382.12	1789.92
382.33	1705.96
382.54	1597.42
382.76	1724.39
382.97	1665.00
383.19	1646.57
383.40	1759.21
383.61	1677.29
383.83	1683.43
384.04	1746.92
384.25	1794.02
384.47	1755.11
384.68	1712.10
384.89	1654.76
385.11	1607.66
385.32	1658.85
385.54	1673.19
385.75	1712.10
385.96	1656.81
386.18	1673.19
386.39	1728.49
386.60	1693.67
386.82	1689.57
387.03	1720.29
387.24	1781.73
387.46	1714.15
387.67	1806.31
387.88	1687.53
388.10	1693.67
388.31	1748.97
388.52	1759.21
388.74	1757.16
388.95	1632.23
389.16	1763.30
389.38	1560.55
389.59	1816.55
389.80	1736.68
390.02	1585.13
390.23	1779.68
390.44	1642.47
390.66	1648.61
390.87	1542.12
391.08	1769.44
391.30	1839.08
391.51	1712.10
391.72	1693.67
391.94	1753.06
392.15	1691.62
392.36	1701.86
392.58	1673.19
392.79	1734.63
393.00	1751.01
393.22	1765.35
393.43	1759.21
393.64	1697.77
393.85	1791.97
394.07	1603.56
394.28	1660.90
394.49	1712.10
394.71	1716.20
394.92	1705.96
395.13	1716.20
395.35	1681.38
395.56	1695.72
395.77	1701.86
395.98	1685.48
396.20	1681.38
396.41	1675.24
396.62	1769.44
396.84	1632.23
397.05	1671.14
397.26	1701.86
397.47	1802.21
397.69	1656.81
397.90	1845.22
398.11	1742.82
398.32	1640.42
398.54	1658.85
398.75	1714.15
398.96	1638.38
399.18	1761.25
399.39	1679.33
399.60	1728.49
399.81	1652.71
400.03	1650.66
400.24	1912.80
400.45	1726.44
400.66	1701.86
400.88	1613.80
401.09	1781.73
401.30	1705.96
401.51	1746.92
401.73	1779.68
401.94	1794.02
402.15	1701.86
402.36	1810.40
402.58	1722.34
402.79	1726.44
403.00	1699.81
403.21	1832.93
403.43	1802.21
403.64	1794.02
403.85	1687.53
404.06	1716.20
404.27	1587.18
404.49	1693.67
404.70	1699.81
404.91	1757.16
405.12	1703.91
405.34	1734.63
405.55	1818.60
405.76	1662.95
405.97	1755.11
406.19	1834.98
406.40	1681.38
406.61	1847.27
406.82	1742.82
407.03	1705.96
407.25	1601.51
407.46	1777.64
407.67	1794.02
407.88	1728.49
408.09	1726.44
408.31	1624.04
408.52	1712.10
408.73	1685.48
408.94	1636.33
409.15	1744.87
409.37	1689.57
409.58	1701.86
409.79	1710.05
410.00	1775.59
410.21	1730.53
410.43	1628.14
410.64	1597.42
410.85	1800.16
411.06	1720.29
411.27	1794.02
411.48	1808.36
411.70	1812.45
411.91	1736.68
412.12	1777.64
412.33	1794.02
412.54	1691.62
412.76	1714.15
412.97	1871.84
413.18	1705.96
413.39	1662.95
413.60	1771.49
413.81	1787.88
414.03	1599.46
414.24	1624.04
414.45	1886.18
414.66	1607.66
414.87	1708.01
415.08	1671.14
415.30	1724.39
415.51	1748.97
415.72	1728.49
415.93	1662.95
416.14	1728.49
416.35	1710.05
416.56	1665.00
416.78	1744.87
416.99	1720.29
417.20	1730.53
417.41	1693.67
417.62	1701.86
417.83	1755.11
418.04	1789.92
418.26	1728.49
418.47	1673.19
418.68	1720.29
418.89	1736.68
419.10	1853.41
419.31	1712.10
419.52	1716.20
419.73	1685.48
419.95	1748.97
420.16	1736.68
420.37	1673.19
420.58	1822.69
420.79	1662.95
421.00	1599.46
421.21	1673.19
421.42	1734.63
421.63	1712.10
421.85	1734.63
422.06	1712.10
422.27	1699.81
422.48	1716.20
422.69	1720.29
422.90	1613.80
423.11	1597.42
423.32	1849.32
423.53	1726.44
423.75	1716.20
423.96	1660.90
424.17	1736.68
424.38	1865.70
424.59	1662.95
424.80	1619.94
425.01	1697.77
425.22	1621.99
425.43	1718.25
425.64	1783.78
425.85	1812.45
426.06	1748.97
426.28	1683.43
426.49	1648.61
426.70	1658.85
426.91	1644.52
427.12	1751.01
427.33	1728.49
427.54	1693.67
427.75	1738.73
427.96	1742.82
428.17	1716.20
428.38	1650.66
428.59	1781.73
428.80	1689.57
429.01	1675.24
429.23	1648.61
429.44	1705.96
429.65	1652.71
429.86	1695.72
430.07	1759.21
430.28	1726.44
430.49	1689.57
430.70	1703.91
430.91	1884.13
431.12	1775.59
431.33	1720.29
431.54	1757.16
431.75	1767.40
431.96	1699.81
432.17	1714.15
432.38	1800.16
432.59	1847.27
432.80	1834.98
433.01	1718.25
433.22	1712.10
433.43	1695.72
433.64	1748.97
433.85	1824.74
434.06	1755.11
434.27	1634.28
434.49	1648.61
434.70	1781.73
434.91	1716.20
435.12	1650.66
435.33	1689.57
435.54	1687.53
435.75	1570.79
435.96	1652.71
436.17	1769.44
436.38	1740.77
436.59	1732.58
436.80	1646.57
437.01	1771.49
437.22	1761.25
437.43	1632.23
437.64	1611.75
437.85	1722.34
438.06	1765.35
438.27	1718.25
438.48	1689.57
438.69	1755.11
438.90	1679.33
439.11	1632.23
439.32	1794.02
439.53	1556.46
439.74	1619.94
439.95	1742.82
440.16	1671.14
440.37	1716.20
440.57	1605.61
440.78	1701.86
440.99	1753.06
441.20	1699.81
441.41	1626.09
441.62	1632.23
441.83	1566.70
442.04	1671.14
442.25	1722.34
442.46	1574.89
442.67	1640.42
442.88	1820.64
443.09	1634.28
443.30	1683.43
443.51	1636.33
443.72	1734.63
443.93	1705.96
444.14	1748.97
444.35	1665.00
444.56	1638.38
444.77	1583.08
444.98	1757.16
445.19	1705.96
445.40	1654.76
445.61	1587.18
445.81	1699.81
446.02	1734.63
446.23	1755.11
446.44	1679.33
446.65	1662.95
446.86	1724.39
447.07	1855.46
447.28	1617.90
447.49	1681.38
447.70	1765.35
447.91	1736.68
448.12	1759.21
448.33	1724.39
448.54	1644.52
448.74	1693.67
448.95	1703.91
449.16	1732.58
449.37	1771.49
449.58	1716.20
449.79	1753.06
450.00	1638.38
450.21	1628.14
450.42	1681.38
450.63	1732.58
450.84	1667.05
451.05	1689.57
451.25	1615.85
451.46	1609.70
451.67	1783.78
451.88	1710.05
452.09	1722.34
452.30	1644.52
452.51	1724.39
452.72	1708.01
452.93	1785.83
453.13	1689.57
453.34	1607.66
453.55	1751.01
453.76	1615.85
453.97	1662.95
454.18	1589.22
454.39	1695.72
454.60	1611.75
454.81	1746.92
455.01	1724.39
455.22	1591.27
455.43	1673.19
455.64	1669.09
455.85	1712.10
456.06	1708.01
456.27	1884.13
456.48	1710.05
456.68	1679.33
456.89	1722.34
457.10	1710.05
457.31	1646.57
457.52	1683.43
457.73	1597.42
457.94	1673.19
458.14	1560.55
458.35	1751.01
458.56	1738.73
458.77	1675.24
458.98	1660.90
459.19	1736.68
459.39	1689.57
459.60	1658.85
459.81	1769.44
460.02	1718.25
460.23	1662.95
460.44	1642.47
460.65	1626.09
460.85	1679.33
461.06	1630.18
461.27	1699.81
461.48	1619.94
461.69	1650.66
461.89	1566.70
462.10	1650.66
462.31	1628.14
462.52	1597.42
462.73	1662.95
462.94	1804.26
463.14	1726.44
463.35	1617.90
463.56	1791.97
463.77	1742.82
463.98	1599.46
464.18	1710.05
464.39	1699.81
464.60	1740.77
464.81	1642.47
465.02	1726.44
465.23	1761.25
465.43	1679.33
465.64	1611.75
465.85	1634.28
466.06	1679.33
466.27	1699.81
466.47	1742.82
466.68	1773.54
466.89	1675.24
467.10	1617.90
467.30	1624.04
467.51	1851.36
467.72	1757.16
467.93	1585.13
468.14	1732.58
468.34	1712.10
468.55	1671.14
468.76	1806.31
468.97	1679.33
469.17	1787.88
469.38	1798.12
469.59	1699.81
469.80	1693.67
470.01	1693.67
470.21	1710.05
470.42	1628.14
470.63	1695.72
470.84	1822.69
471.04	1667.05
471.25	1808.36
471.46	1671.14
471.67	1720.29
471.87	1667.05
472.08	1746.92
472.29	1691.62
472.50	1689.57
472.70	1701.86
472.91	1576.94
473.12	1615.85
473.33	1619.94
473.53	1712.10
473.74	1630.18
473.95	1679.33
474.16	1648.61
474.36	1751.01
474.57	1810.40
474.78	1662.95
474.99	1757.16
475.19	1626.09
475.40	1681.38
475.61	1744.87
475.81	1755.11
476.02	1665.00
476.23	1736.68
476.44	1693.67
476.64	1613.80
476.85	1703.91
477.06	1646.57
477.27	1744.87
477.47	1812.45
477.68	1697.77
477.89	1728.49
478.09	1767.40
478.30	1761.25
478.51	1724.39
478.71	1667.05
478.92	1699.81
479.13	1787.88
479.34	1708.01
479.54	1720.29
479.75	1640.42
479.96	1634.28
480.16	1632.23
480.37	1665.00
480.58	1710.05
480.78	1781.73
480.99	1644.52
481.20	1705.96
481.41	1789.92
481.61	1744.87
481.82	1734.63
482.03	1673.19
482.23	1646.57
482.44	1789.92
482.65	1818.60
482.85	1732.58
483.06	1665.00
483.27	1708.01
483.47	1755.11
483.68	1710.05
483.89	1726.44
484.09	1765.35
484.30	1724.39
484.51	1826.79
484.71	1669.09
484.92	1591.27
485.13	1679.33
485.33	1632.23
485.54	1660.90
485.75	1755.11
485.95	1689.57
486.16	1716.20
486.37	1652.71
486.57	1593.32
486.78	1720.29
486.98	1689.57
487.19	1642.47
487.40	1679.33
487.60	1732.58
487.81	1681.38
488.02	1630.18
488.22	1619.94
488.43	1753.06
488.64	1624.04
488.84	1683.43
489.05	1705.96
489.25	1687.53
489.46	1701.86
489.67	1675.24
489.87	1720.29
490.08	1720.29
490.29	1624.04
490.49	1826.79
490.70	1753.06
490.90	1712.10
491.11	1669.09
491.32	1677.29
491.52	1720.29
491.73	1714.15
491.94	1818.60
492.14	1587.18
492.35	1746.92
492.55	1683.43
492.76	1644.52
492.97	1669.09
493.17	1705.96
493.38	1708.01
493.58	1814.50
493.79	1624.04
494.00	1728.49
494.20	1591.27
494.41	1722.34
494.61	1701.86
494.82	1744.87
495.02	1650.66
495.23	1748.97
495.44	1638.38
495.64	1697.77
495.85	1648.61
496.05	1759.21
496.26	1781.73
496.47	1728.49
496.67	1679.33
496.88	1763.30
497.08	1742.82
497.29	1650.66
497.49	1767.40
497.70	1705.96
497.91	1738.73
498.11	1796.07
498.32	1732.58
498.52	1757.16
498.73	1740.77
498.93	1728.49
499.14	1769.44
499.34	1724.39
499.55	1691.62
499.76	1634.28
499.96	1742.82
500.17	1675.24
500.37	1712.10
500.58	1658.85
500.78	1665.00
500.99	1669.09
501.19	1650.66
501.40	1841.12
501.60	1568.74
501.81	1669.09
502.02	1652.71
502.22	1740.77
502.43	1679.33
502.63	1791.97
502.84	1751.01
503.04	1675.24
503.25	1757.16
503.45	1796.07
503.66	1648.61
503.86	1697.77
504.07	1705.96
504.27	1662.95
504.48	1753.06
504.68	1619.94
504.89	1718.25
505.09	1558.50
505.30	1626.09
505.50	1732.58
505.71	1671.14
505.91	1687.53
506.12	1732.58
506.32	1662.95
506.53	1648.61
506.73	1736.68
506.94	1609.70
507.14	1665.00
507.35	1748.97
507.55	1740.77
507.76	1726.44
507.96	1689.57
508.17	1794.02
508.37	1621.99
508.58	1665.00
508.78	1767.40
508.99	1796.07
509.19	1781.73
509.40	1695.72
509.60	1640.42
509.81	1830.88
510.01	1689.57
510.22	1638.38
510.42	1689.57
510.63	1777.64
510.83	1703.91
511.04	1742.82
511.24	1724.39
511.44	1740.77
511.65	1615.85
511.85	1697.77
512.06	1683.43
512.26	1628.14
512.47	1726.44
512.67	1681.38
512.88	1748.97
513.08	1673.19
513.29	1691.62
513.49	1679.33
513.69	1726.44
513.90	1638.38
514.10	1720.29
514.31	1699.81
514.51	1683.43
514.72	1708.01
514.92	1720.29
515.13	1724.39
515.33	1658.85
515.53	1601.51
515.74	1765.35
515.94	1714.15
516.15	1744.87
516.35	1660.90
516.56	1644.52
516.76	1681.38
516.96	1705.96
517.17	1773.54
517.37	1712.10
517.58	1564.65
517.78	1662.95
517.99	1730.53
518.19	1804.26
518.39	1732.58
518.60	1753.06
518.80	1708.01
519.01	1781.73
519.21	1716.20
519.41	1689.57
519.62	1626.09
519.82	1716.20
520.03	1667.05
520.23	1691.62
520.43	1595.37
520.64	1724.39
520.84	1742.82
521.05	1642.47
521.25	1687.53
521.45	1681.38
521.66	1691.62
521.86	1738.73
522.07	1677.29
522.27	1638.38
522.47	1656.81
522.68	1667.05
522.88	1701.86
523.08	1804.26
523.29	1583.08
523.49	1691.62
523.70	1693.67
523.90	1697.77
524.10	1763.30
524.31	1703.91
524.51	1589.22
524.71	1765.35
524.92	1740.77
525.12	1609.70
525.33	1765.35
525.53	1734.63
525.73	1806.31
525.94	1626.09
526.14	1656.81
526.34	1624.04
526.55	1613.80
526.75	1701.86
526.95	1742.82
527.16	1621.99
527.36	1679.33
527.56	1724.39
527.77	1671.14
527.97	1767.40
528.17	1738.73
528.38	1748.97
528.58	1712.10
528.78	1669.09
528.99	1626.09
529.19	1603.56
529.39	1667.05
529.60	1665.00
529.80	1712.10
530.00	1630.18
530.21	1769.44
530.41	1726.44
530.61	1734.63
530.82	1695.72
531.02	1683.43
531.22	1705.96
531.43	1671.14
531.63	1773.54
531.83	1677.29
532.04	1767.40
532.24	1687.53
532.44	1650.66
532.64	1765.35
532.85	1712.10
533.05	1654.76
533.25	1642.47
533.46	1757.16
533.66	1701.86
533.86	1718.25
534.07	1712.10
534.27	1671.14
534.47	1660.90
534.67	1705.96
534.88	1656.81
535.08	1699.81
535.28	1742.82
535.49	1669.09
535.69	1742.82
535.89	1714.15
536.09	1787.88
536.30	1718.25
536.50	1734.63
536.70	1763.30
536.91	1656.81
537.11	1759.21
537.31	1677.29
537.51	1675.24
537.72	1677.29
537.92	1714.15
538.12	1722.34
538.32	1755.11
538.53	1701.86
538.73	1705.96
538.93	1714.15
539.13	1705.96
539.34	1673.19
539.54	1658.85
539.74	1775.59
539.94	1687.53
540.15	1722.34
540.35	1671.14
540.55	1681.38
540.75	1652.71
540.96	1597.42
541.16	1755.11
541.36	1685.48
541.56	1779.68
541.77	1775.59
541.97	1701.86
542.17	1636.33
542.37	1781.73
542.58	1677.29
542.78	1675.24
542.98	1720.29
543.18	1675.24
543.38	1734.63
543.59	1787.88
543.79	1558.50
543.99	1621.99
544.19	1638.38
544.40	1783.78
544.60	1687.53
544.80	1605.61
545.00	1650.66
545.20	1714.15
545.41	1714.15
545.61	1640.42
545.81	1730.53
546.01	1708.01
546.21	1732.58
546.42	1751.01
546.62	1763.30
546.82	1632.23
547.02	1705.96
547.22	1640.42
547.43	1689.57
547.63	1654.76
547.83	1759.21
548.03	1548.26
548.23	1802.21
548.44	1701.86
548.64	1628.14
548.84	1716.20
549.04	1665.00
549.24	1818.60
549.45	1961.95
549.65	1724.39
549.85	1755.11
550.05	1683.43
550.25	1535.98
550.45	1722.34
550.66	1683.43
550.86	1601.51
551.06	1699.81
551.26	1718.25
551.46	1722.34
551.66	1708.01
551.87	1642.47
552.07	1695.72
552.27	1751.01
552.47	1748.97
552.67	1708.01
552.87	1697.77
553.07	1718.25
553.28	1734.63
553.48	1677.29
553.68	1712.10
553.88	1689.57
554.08	1691.62
554.28	1634.28
554.48	1609.70
554.69	1714.15
554.89	1738.73
555.09	1675.24
555.29	1615.85
555.49	1712.10
555.69	1640.42
555.89	1726.44
556.10	1687.53
556.30	1636.33
556.50	1734.63
556.70	1681.38
556.90	1691.62
557.10	1724.39
557.30	1748.97
557.50	1669.09
557.70	1683.43
557.91	1714.15
558.11	1658.85
558.31	1796.07
558.51	1761.25
558.71	1703.91
558.91	1681.38
559.11	1619.94
559.31	1648.61
559.51	1609.70
559.72	1796.07
559.92	1665.00
560.12	1673.19
560.32	1714.15
560.52	1728.49
560.72	1697.77
560.92	1710.05
561.12	1753.06
561.32	1683.43
561.52	1617.90
561.72	1820.64
561.93	1689.57
562.13	1638.38
562.33	1701.86
562.53	1660.90
562.73	1734.63
562.93	1705.96
563.13	1773.54
563.33	1767.40
563.53	1753.06
563.73	1740.77
563.93	1724.39
564.13	1845.22
564.33	1734.63
564.53	1710.05
564.74	1675.24
564.94	1679.33
565.14	1732.58
565.34	1642.47
565.54	1740.77
565.74	1712.10
565.94	1720.29
566.14	1681.38
566.34	1732.58
566.54	1689.57
566.74	1742.82
566.94	1757.16
567.14	1699.81
567.34	1667.05
567.54	1761.25
567.74	1662.95
567.94	1681.38
568.14	1658.85
568.34	1916.90
568.54	1677.29
568.74	1714.15
568.94	1687.53
569.14	1777.64
569.34	1744.87
569.54	1617.90
569.75	1665.00
569.95	1714.15
570.15	1691.62
570.35	1636.33
570.55	1634.28
570.75	1697.77
570.95	1708.01
571.15	1656.81
571.35	1687.53
571.55	1691.62
571.75	1740.77
571.95	1689.57
572.15	1675.24
572.35	1658.85
572.55	1775.59
572.75	1601.51
572.95	1681.38
573.15	1734.63
573.35	1806.31
573.55	1697.77
573.75	1691.62
573.95	1869.80
574.15	1769.44
574.35	1701.86
574.55	1732.58
574.75	1787.88
574.95	1699.81
575.15	1636.33
575.34	1759.21
575.54	1746.92
575.74	1744.87
575.94	1646.57
576.14	1617.90
576.34	1708.01
576.54	1626.09
576.74	1742.82
576.94	1619.94
577.14	1646.57
577.34	1712.10
577.54	1701.86
577.74	1626.09
577.94	1658.85
578.14	1669.09
578.34	1730.53
578.54	1617.90
578.74	1728.49
578.94	1718.25
579.14	1771.49
579.34	1601.51
579.54	1667.05
579.74	1667.05
579.94	1652.71
580.13	1804.26
580.33	1710.05
580.53	1701.86
580.73	1669.09
580.93	1691.62
581.13	1621.99
581.33	1675.24
581.53	1681.38
581.73	1697.77
581.93	1595.37
582.13	1710.05
582.33	1693.67
582.53	1683.43
582.73	1714.15
582.92	1679.33
583.12	1748.97
583.32	1593.32
583.52	1716.20
583.72	1716.20
583.92	1710.05
584.12	1640.42
584.32	1777.64
584.52	1632.23
584.72	1609.70
584.92	1736.68
585.11	1732.58
585.31	1728.49
585.51	1665.00
585.71	1718.25
585.91	1853.41
586.11	1728.49
586.31	1646.57
586.51	1673.19
586.71	1638.38
586.91	1667.05
587.10	1699.81
587.30	1710.05
587.50	1656.81
587.70	1611.75
587.90	1794.02
588.10	1703.91
588.30	1638.38
588.50	1632.23
588.69	1658.85
588.89	1703.91
589.09	1710.05
589.29	1671.14
589.49	1693.67
589.69	1660.90
589.89	1757.16
590.08	1621.99
590.28	1697.77
590.48	1654.76
590.68	1761.25
590.88	1736.68
591.08	1705.96
591.28	1714.15
591.47	1757.16
591.67	1609.70
591.87	1783.78
592.07	1810.40
592.27	1591.27
592.47	1585.13
592.67	1728.49
592.86	1615.85
593.06	1699.81
593.26	1744.87
593.46	1775.59
593.66	1599.46
593.86	1761.25
594.05	1800.16
594.25	1740.77
594.45	1626.09
594.65	1818.60
594.85	1816.55
595.05	1730.53
595.24	1732.58
595.44	1703.91
595.64	1640.42
595.84	1724.39
596.04	1705.96
596.23	1669.09
596.43	1699.81
596.63	1691.62
596.83	1626.09
597.03	1779.68
597.22	1773.54
597.42	1734.63
597.62	1705.96
597.82	1720.29
598.02	1671.14
598.21	1732.58
598.41	1693.67
598.61	1728.49
598.81	1714.15
599.01	1779.68
599.20	1708.01
599.40	1632.23
599.60	1765.35
599.80	1728.49
600.00	1843.17
600.19	1775.59
600.39	1691.62
600.59	1714.15
600.79	1753.06
600.98	1705.96
601.18	1748.97
601.38	1755.11
601.58	1681.38
601.78	1716.20
601.97	1738.73
602.17	1748.97
602.37	1630.18
602.57	1728.49
602.76	1726.44
602.96	1605.61
603.16	1634.28
603.36	1794.02
603.55	1728.49
603.75	1708.01
603.95	1724.39
604.15	1783.78
604.34	1712.10
604.54	1710.05
604.74	1767.40
604.94	1642.47
605.13	1708.01
605.33	1738.73
605.53	1693.67
605.73	1773.54
605.92	1652.71
606.12	1621.99
606.32	1693.67
606.52	1714.15
606.71	1763.30
606.91	1687.53
607.11	1742.82
607.30	1734.63
607.50	1669.09
607.70	1839.08
607.90	1683.43
608.09	1662.95
608.29	1787.88
608.49	1851.36
608.68	1662.95
608.88	1665.00
609.08	1607.66
609.28	1730.53
609.47	1662.95
609.67	1759.21
609.87	1736.68
610.06	1753.06
610.26	1714.15
610.46	1841.12
610.66	1705.96
610.85	1691.62
611.05	1769.44
611.25	1689.57
611.44	1589.22
611.64	1667.05
611.84	1777.64
612.03	1656.81
612.23	1644.52
612.43	1748.97
612.62	1748.97
612.82	1738.73
613.02	1734.63
613.21	1691.62
613.41	1722.34
613.61	1621.99
613.80	1662.95
614.00	1693.67
614.20	1761.25
614.39	1806.31
614.59	1802.21
614.79	1665.00
614.98	1658.85
615.18	1671.14
615.38	1681.38
615.57	1624.04
615.77	1806.31
615.97	1675.24
616.16	1634.28
616.36	1773.54
616.56	1683.43
616.75	1679.33
616.95	1634.28
617.15	1794.02
617.34	1619.94
617.54	1798.12
617.74	1724.39
617.93	1765.35
618.13	1642.47
618.32	1691.62
618.52	1685.48
618.72	1722.34
618.91	1773.54
619.11	1746.92
619.31	1712.10
619.50	1724.39
619.70	1638.38
619.90	1695.72
620.09	1656.81
620.29	1712.10
620.48	1826.79
620.68	1742.82
620.88	1716.20
621.07	1748.97
621.27	1720.29
621.46	1683.43
621.66	1812.45
621.86	1695.72
622.05	1736.68
622.25	1814.50
622.44	1699.81
622.64	1671.14
622.84	1763.30
623.03	1591.27
623.23	1683.43
623.42	1757.16
623.62	1779.68
623.82	1699.81
624.01	1665.00
624.21	1763.30
624.40	1830.88
624.60	1716.20
624.80	1624.04
624.99	1683.43
625.19	1705.96
625.38	1689.57
625.58	1730.53
625.77	1728.49
625.97	1662.95
626.17	1640.42
626.36	1728.49
626.56	1691.62
626.75	1671.14
626.95	1703.91
627.14	1722.34
627.34	1712.10
627.54	1794.02
627.73	1834.98
627.93	1720.29
628.12	1699.81
628.32	1746.92
628.51	1611.75
628.71	1877.99
628.90	1834.98
629.10	1658.85
629.30	1671.14
629.49	1744.87
629.69	1710.05
629.88	1646.57
630.08	1869.80
630.27	1808.36
630.47	1716.20
630.66	1658.85
630.86	1798.12
631.05	1640.42
631.25	1714.15
631.44	1796.07
631.64	1587.18
631.84	1556.46
632.03	1767.40
632.23	1740.77
632.42	1679.33
632.62	1642.47
632.81	1677.29
633.01	1681.38
633.20	1802.21
633.40	1894.37
633.59	1720.29
633.79	1708.01
633.98	1714.15
634.18	1744.87
634.37	1814.50
634.57	1722.34
634.76	1626.09
634.96	1830.88
635.15	1880.04
635.35	1732.58
635.54	1703.91
635.74	1740.77
635.93	1683.43
636.13	1708.01
636.32	1673.19
636.52	1804.26
636.71	1652.71
636.91	1654.76
637.10	1771.49
637.30	1699.81
637.49	1716.20
637.69	1740.77
637.88	1761.25
638.08	1617.90
638.27	1732.58
638.46	1662.95
638.66	1660.90
638.85	1648.61
639.05	1742.82
639.24	1798.12
639.44	1708.01
639.63	1816.55
639.83	1740.77
640.02	1693.67
640.22	1701.86
640.41	1667.05
640.61	1785.83
640.80	1687.53
640.99	1720.29
641.19	1726.44
641.38	1785.83
641.58	1732.58
641.77	1679.33
641.97	1597.42
642.16	1738.73
642.36	1693.67
642.55	1712.10
642.74	1695.72
642.94	1660.90
643.13	1677.29
643.33	1779.68
643.52	1681.38
643.72	1765.35
643.91	1703.91
644.10	1824.74
644.30	1662.95
644.49	1736.68
644.69	1681.38
644.88	1667.05
645.08	1796.07
645.27	1736.68
645.46	1665.00
645.66	1751.01
645.85	1753.06
646.05	1712.10
646.24	1636.33
646.43	1697.77
646.63	1779.68
646.82	1665.00
647.02	1751.01
647.21	1824.74
647.40	1712.10
647.60	1626.09
647.79	1779.68
647.99	1714.15
648.18	1611.75
648.37	1742.82
648.57	1683.43
648.76	1679.33
648.96	1662.95
649.15	1685.48
649.34	1818.60
649.54	1662.95
649.73	1648.61
649.92	1712.10
650.12	1712.10
650.31	1761.25
650.51	1882.08
650.70	1703.91
650.89	1716.20
651.09	1769.44
651.28	1732.58
651.47	1644.52
651.67	1781.73
651.86	1806.31
652.06	1599.46
652.25	1683.43
652.44	1609.70
652.64	1777.64
652.83	1759.21
653.02	1716.20
653.22	1705.96
653.41	1646.57
653.60	1673.19
653.80	1634.28
653.99	1734.63
654.18	1578.98
654.38	1632.23
654.57	1767.40
654.76	1703.91
654.96	1732.58
655.15	1705.96
655.34	1683.43
655.54	1613.80
655.73	1693.67
655.92	1673.19
656.12	1732.58
656.31	1753.06
656.50	1834.98
656.70	1724.39
656.89	1607.66
657.08	1599.46
657.28	1669.09
657.47	1691.62
657.66	1583.08
657.86	1615.85
658.05	1771.49
658.24	1767.40
658.43	1769.44
658.63	1601.51
658.82	1740.77
659.01	1714.15
659.21	1763.30
659.40	1716.20
659.59	1728.49
659.79	1703.91
659.98	1869.80
660.17	1765.35
660.36	1777.64
660.56	1697.77
660.75	1693.67
660.94	1757.16
661.14	1710.05
661.33	1703.91
661.52	1695.72
661.71	1695.72
661.91	1677.29
662.10	1624.04
662.29	1677.29
662.49	1665.00
662.68	1658.85
662.87	1685.48
663.06	1746.92
663.26	1732.58
663.45	1830.88
663.64	1677.29
663.83	1738.73
664.03	1732.58
664.22	1722.34
664.41	1794.02
664.60	1763.30
664.80	1593.32
664.99	1677.29
665.18	1732.58
665.37	1736.68
665.57	1759.21
665.76	1728.49
665.95	1697.77
666.14	1638.38
666.34	1615.85
666.53	1681.38
666.72	1613.80
666.91	1800.16
667.11	1638.38
667.30	1871.84
667.49	1650.66
667.68	1830.88
667.87	1683.43
668.07	1769.44
668.26	1540.07
668.45	1712.10
668.64	1728.49
668.84	1777.64
669.03	1716.20
669.22	1753.06
669.41	1665.00
669.60	1634.28
669.80	1796.07
669.99	1710.05
670.18	1650.66
670.37	1791.97
670.57	1755.11
670.76	1748.97
670.95	1757.16
671.14	1609.70
671.33	1679.33
671.53	1734.63
671.72	1828.84
671.91	1802.21
672.10	1683.43
672.29	1648.61
672.48	1671.14
672.68	1728.49
672.87	1646.57
673.06	1705.96
673.25	1646.57
673.44	1726.44
673.64	1585.13
673.83	1738.73
674.02	1675.24
674.21	1818.60
674.40	1732.58
674.59	1705.96
674.79	1673.19
674.98	1798.12
675.17	1812.45
675.36	1601.51
675.55	1638.38
675.74	1683.43
675.94	1777.64
676.13	1759.21
676.32	1658.85
676.51	1628.14
676.70	1554.41
676.89	1720.29
677.08	1656.81
677.28	1863.65
677.47	1708.01
677.66	1714.15
677.85	1628.14
678.04	1708.01
678.23	1765.35
678.42	1701.86
678.62	1728.49
678.81	1665.00
679.00	1738.73
679.19	1798.12
679.38	1748.97
679.57	1626.09
679.76	1636.33
679.96	1804.26
680.15	1787.88
680.34	1660.90
680.53	1796.07
680.72	1677.29
680.91	1738.73
681.10	1740.77
681.29	1685.48
681.48	1810.40
681.68	1742.82
681.87	1755.11
682.06	1662.95
682.25	1767.40
682.44	1634.28
682.63	1755.11
682.82	1585.13
683.01	1773.54
683.20	1705.96
683.39	1734.63
683.59	1673.19
683.78	1724.39
683.97	1742.82
684.16	1630.18
684.35	1708.01
684.54	1714.15
684.73	1632.23
684.92	1595.37
685.11	1736.68
685.30	1656.81
685.49	1673.19
685.69	1869.80
685.88	1634.28
686.07	1677.29
686.26	1695.72
686.45	1685.48
686.64	1777.64
686.83	1724.39
687.02	1744.87
687.21	1818.60
687.40	1751.01
687.59	1798.12
687.78	1667.05
687.97	1734.63
688.16	1712.10
688.35	1646.57
688.54	1654.76
688.74	1499.11
688.93	1689.57
689.12	1693.67
689.31	1806.31
689.50	1759.21
689.69	1673.19
689.88	1763.30
690.07	1687.53
690.26	1732.58
690.45	1697.77
690.64	1769.44
690.83	1656.81
691.02	1654.76
691.21	1751.01
691.40	1705.96
691.59	1732.58
691.78	1695.72
691.97	1701.86
692.16	1683.43
692.35	1765.35
692.54	1779.68
692.73	1660.90
692.92	1748.97
693.11	1658.85
693.30	1765.35
693.49	1628.14
693.68	1777.64
693.87	1730.53
694.06	1665.00
694.25	1662.95
694.44	1654.76
694.63	1675.24
694.82	1667.05
695.01	1675.24
695.20	1671.14
695.39	1671.14
695.58	1681.38
695.77	1636.33
695.96	1740.77
696.15	1716.20
696.34	1667.05
696.53	1644.52
696.72	1736.68
696.91	1570.79
697.10	1718.25
697.29	1732.58
697.48	1849.32
697.67	1658.85
697.86	1656.81
698.05	1619.94
698.24	1751.01
698.43	1705.96
698.62	1724.39
698.81	1701.86
699.00	1771.49
699.19	1683.43
699.38	1687.53
699.57	1650.66
699.76	1677.29
699.95	1658.85
700.14	1740.77
700.32	1716.20
700.51	1667.05
700.70	1669.09
700.89	1781.73
701.08	1755.11
701.27	1626.09
701.46	1830.88
701.65	1685.48
701.84	1671.14
702.03	1605.61
702.22	1746.92
702.41	1785.83
702.60	1767.40
702.79	1695.72
702.98	1671.14
703.17	1724.39
703.35	1667.05
703.54	1718.25
703.73	1796.07
703.92	1669.09
704.11	1673.19
704.30	1757.16
704.49	1761.25
704.68	1615.85
704.87	1642.47
705.06	1789.92
705.25	1681.38
705.43	1634.28
705.62	1648.61
705.81	1748.97
706.00	1669.09
706.19	1728.49
706.38	1628.14
706.57	1845.22
706.76	1697.77
706.95	1662.95
707.14	1724.39
707.32	1644.52
707.51	1697.77
707.70	1656.81
707.89	1646.57
708.08	1765.35
708.27	1699.81
708.46	1710.05
708.65	1591.27
708.84	1794.02
709.02	1753.06
709.21	1671.14
709.40	1681.38
709.59	1757.16
709.78	1660.90
709.97	1724.39
710.16	1726.44
710.34	1648.61
710.53	1783.78
710.72	1697.77
710.91	1775.59
711.10	1630.18
711.29	1703.91
711.48	1685.48
711.66	1712.10
711.85	1695.72
712.04	1748.97
712.23	1640.42
712.42	1683.43
712.61	1734.63
712.80	1732.58
712.98	1732.58
713.17	1695.72
713.36	1687.53
713.55	1767.40
713.74	1658.85
713.93	1722.34
714.11	1656.81
714.30	1581.03
714.49	1703.91
714.68	1720.29
714.87	1695.72
715.06	1779.68
715.24	1742.82
715.43	1636.33
715.62	1699.81
715.81	1753.06
716.00	1699.81
716.18	1712.10
716.37	1671.14
716.56	1687.53
716.75	1687.53
716.94	1679.33
717.12	1683.43
717.31	1689.57
717.50	1667.05
717.69	1630.18
717.88	1736.68
718.06	1665.00
718.25	1693.67
718.44	1699.81
718.63	1716.20
718.82	1609.70
719.00	1632.23
719.19	1798.12
719.38	1720.29
719.57	1744.87
719.76	1667.05
719.94	1683.43
720.13	1652.71
720.32	1789.92
720.51	1681.38
720.69	1671.14
720.88	1800.16
721.07	1720.29
721.26	1777.64
721.44	1740.77
721.63	1753.06
721.82	1748.97
722.01	1718.25
722.20	1642.47
722.38	1718.25
722.57	1628.14
722.76	1769.44
722.95	1675.24
723.13	1656.81
723.32	1714.15
723.51	1763.30
723.70	1728.49
723.88	1695.72
724.07	1683.43
724.26	1728.49
724.44	1697.77
724.63	1765.35
724.82	1662.95
725.01	1642.47
725.19	1648.61
725.38	1742.82
725.57	1753.06
725.76	1724.39
725.94	1656.81
726.13	1716.20
726.32	1669.09
726.51	1677.29
726.69	1603.56
726.88	1724.39
727.07	1783.78
727.25	1714.15
727.44	1744.87
727.63	1695.72
727.82	1726.44
728.00	1597.42
728.19	1679.33
728.38	1642.47
728.56	1652.71
728.75	1783.78
728.94	1726.44
729.12	1624.04
729.31	1693.67
729.50	1660.90
729.69	1740.77
729.87	1681.38
730.06	1681.38
730.25	1687.53
730.43	1712.10
730.62	1632.23
730.81	1589.22
730.99	1695.72
731.18	1693.67
731.37	1665.00
731.55	1638.38
731.74	1730.53
731.93	1630.18
732.11	1685.48
732.30	1701.86
732.49	1671.14
732.67	1621.99
732.86	1658.85
733.05	1621.99
733.23	1703.91
733.42	1730.53
733.61	1615.85
733.79	1738.73
733.98	1712.10
734.17	1742.82
734.35	1802.21
734.54	1798.12
734.73	1753.06
734.91	1566.70
735.10	1751.01
735.29	1705.96
735.47	1634.28
735.66	1630.18
735.84	1789.92
736.03	1669.09
736.22	1708.01
736.40	1763.30
736.59	1535.98
736.78	1660.90
736.96	1677.29
737.15	1708.01
737.33	1740.77
737.52	1646.57
737.71	1746.92
737.89	1673.19
738.08	1687.53
738.27	1728.49
738.45	1638.38
738.64	1652.71
738.82	1705.96
739.01	1591.27
739.20	1669.09
739.38	1794.02
739.57	1699.81
739.75	1705.96
739.94	1740.77
740.13	1630.18
740.31	1777.64
740.50	1716.20
740.68	1601.51
740.87	1628.14
741.06	1746.92
741.24	1736.68
741.43	1736.68
741.61	1673.19
741.80	1705.96
741.99	1665.00
742.17	1658.85
742.36	1697.77
742.54	1759.21
742.73	1816.55
742.91	1652.71
743.10	1632.23
743.29	1726.44
743.47	1691.62
743.66	1609.70
743.84	1716.20
744.03	1677.29
744.21	1615.85
744.40	1679.33
744.59	1646.57
744.77	1748.97
744.96	1740.77
745.14	1693.67
745.33	1699.81
745.51	1748.97
745.70	1662.95
745.88	1681.38
746.07	1611.75
746.26	1712.10
746.44	1591.27
746.63	1628.14
746.81	1726.44
747.00	1708.01
747.18	1650.66
747.37	1669.09
747.55	1769.44
747.74	1990.63
747.92	1693.67
748.11	1705.96
748.29	1724.39
748.48	1703.91
748.66	1665.00
748.85	1646.57
749.03	1691.62
749.22	1527.78
749.41	1642.47
749.59	1703.91
749.78	1656.81
749.96	1642.47
750.15	1722.34
750.33	1714.15
750.52	1607.66
750.70	1648.61
750.89	1705.96
751.07	1591.27
751.26	1740.77
751.44	1656.81
751.63	1671.14
751.81	1640.42
752.00	1640.42
752.18	1712.10
752.37	1740.77
752.55	1708.01
752.74	1601.51
752.92	1632.23
753.10	1642.47
753.29	1624.04
753.47	1656.81
753.66	1585.13
753.84	1697.77
754.03	1673.19
754.21	1714.15
754.40	1689.57
754.58	1794.02
754.77	1779.68
754.95	1730.53
755.14	1665.00
755.32	1654.76
755.51	1572.84
755.69	1716.20
755.88	1632.23
756.06	1714.15
756.24	1576.94
756.43	1755.11
756.61	1724.39
756.80	1585.13
756.98	1685.48
757.17	1671.14
757.35	1703.91
757.54	1595.37
757.72	1638.38
757.90	1712.10
758.09	1650.66
758.27	1728.49
758.46	1636.33
758.64	1675.24
758.83	1718.25
759.01	1755.11
759.19	1726.44
759.38	1658.85
759.56	1665.00
759.75	1667.05
759.93	1742.82
760.12	1650.66
760.30	1681.38
760.48	1712.10
760.67	1699.81
760.85	1671.14
761.04	1650.66
761.22	1644.52
761.40	1765.35
761.59	1650.66
761.77	1626.09
761.96	1708.01
762.14	1638.38
762.32	1728.49
762.51	1624.04
762.69	1646.57
762.88	1699.81
763.06	1605.61
763.24	1710.05
763.43	1583.08
763.61	1685.48
763.80	1705.96
763.98	1740.77
764.16	1568.74
764.35	1712.10
764.53	1636.33
764.72	1601.51
764.90	1740.77
765.08	1789.92
765.27	1691.62
765.45	1601.51
765.63	1599.46
765.82	1732.58
766.00	1640.42
766.18	1736.68
766.37	1617.90
766.55	1665.00
766.74	1703.91
766.92	1644.52
767.10	1632.23
767.29	1748.97
767.47	1638.38
767.65	1710.05
767.84	1699.81
768.02	1732.58
768.20	1652.71
768.39	1626.09
768.57	1662.95
768.75	1669.09
768.94	1693.67
769.12	1660.90
769.30	1667.05
769.49	1691.62
769.67	1611.75
769.85	1753.06
770.04	1570.79
770.22	1667.05
770.40	1691.62
770.59	1632.23
770.77	1748.97
770.95	1712.10
771.14	1699.81
771.32	1675.24
771.50	1681.38
771.69	1640.42
771.87	1671.14
772.05	1771.49
772.24	1652.71
772.42	1658.85
772.60	1660.90
772.78	1742.82
772.97	1581.03
773.15	1656.81
773.33	1667.05
773.52	1554.41
773.70	1720.29
773.88	1693.67
774.07	1648.61
774.25	1603.56
774.43	1724.39
774.61	1685.48
774.80	1708.01
774.98	1675.24
775.16	1634.28
775.34	1748.97
775.53	1687.53
775.71	1628.14
775.89	1759.21
776.08	1607.66
776.26	1673.19
776.44	1716.20
776.62	1685.48
776.81	1587.18
776.99	1740.77
777.17	1689.57
777.35	1736.68
777.54	1691.62
777.72	1671.14
777.90	1617.90
778.08	1630.18
778.27	1638.38
778.45	1599.46
778.63	1699.81
778.81	1669.09
779.00	1744.87
779.18	1617.90
779.36	1736.68
779.54	1683.43
779.73	1640.42
779.91	1621.99
780.09	1687.53
780.27	1667.05
780.46	1757.16
780.64	1568.74
780.82	1658.85
781.00	1677.29
781.19	1597.42
781.37	1585.13
781.55	1738.73
781.73	1667.05
781.91	1603.56
782.10	1667.05
782.28	1748.97
782.46	1710.05
782.64	1681.38
782.82	1689.57
783.01	1632.23
783.19	1699.81
783.37	1712.10
783.55	1634.28
783.74	1683.43
783.92	1589.22
784.10	1699.81
784.28	1746.92
784.46	1695.72
784.64	1662.95
784.83	1695.72
785.01	1863.65
785.19	1761.25
785.37	1708.01
785.55	1626.09
785.74	1636.33
785.92	1576.94
786.10	1574.89
786.28	1798.12
786.46	1714.15
786.64	1640.42
786.83	1656.81
787.01	1667.05
787.19	1785.83
787.37	1720.29
787.55	1697.77
787.74	1619.94
787.92	1703.91
788.10	1679.33
788.28	1630.18
788.46	1685.48
788.64	1722.34
788.82	1693.67
789.01	1644.52
789.19	1697.77
789.37	1769.44
789.55	1681.38
789.73	1648.61
789.91	1650.66
790.09	1714.15
790.28	1630.18
790.46	1626.09
790.64	1650.66
790.82	1699.81
791.00	1595.37
791.18	1722.34
791.36	1673.19
791.55	1642.47
791.73	1648.61
791.91	1613.80
792.09	1697.77
792.27	1617.90
792.45	1691.62
792.63	1773.54
792.81	1640.42
793.00	1742.82
793.18	1701.86
793.36	1720.29
793.54	1720.29
793.72	1640.42
793.90	1697.77
794.08	1583.08
794.26	1705.96
794.44	1521.64
794.62	1626.09
794.81	1566.70
794.99	1683.43
795.17	1765.35
795.35	1642.47
795.53	1697.77
795.71	1730.53
795.89	1658.85
796.07	1638.38
796.25	1658.85
796.43	1703.91
796.61	1714.15
796.80	1589.22
796.98	1662.95
797.16	1671.14
797.34	1648.61
797.52	1646.57
797.70	1740.77
797.88	1732.58
798.06	1576.94
798.24	1714.15
798.42	1697.77
798.60	1660.90
798.78	1697.77
798.96	1669.09
799.14	1650.66
799.32	1740.77
799.51	1593.32
799.69	1673.19
799.87	1726.44
800.05	1681.38
800.23	1581.03
800.41	1691.62
800.59	1724.39
800.77	1667.05
800.95	1544.17
801.13	1730.53
801.31	1691.62
801.49	1789.92
801.67	1662.95
801.85	1615.85
802.03	1628.14
802.21	1724.39
802.39	1613.80
802.57	1738.73
802.75	1683.43
802.93	1705.96
803.11	1624.04
803.29	1742.82
803.47	1738.73
803.65	1535.98
803.83	1658.85
804.01	1609.70
804.19	1667.05
804.37	1648.61
804.55	1681.38
804.73	1753.06
804.91	1599.46
805.09	1658.85
805.27	1787.88
805.45	1640.42
805.63	1630.18
805.81	1748.97
805.99	1726.44
806.17	1583.08
806.35	1632.23
806.53	1634.28
806.71	1748.97
806.89	1722.34
807.07	1673.19
807.25	1720.29
807.43	1646.57
807.61	1718.25
807.79	1722.34
807.97	1718.25
808.15	1687.53
808.33	1677.29
808.51	1748.97
808.69	1689.57
808.87	1564.65
809.05	1667.05
809.23	1587.18
809.41	1583.08
809.59	1589.22
809.77	1810.40
809.95	1667.05
810.13	1656.81
810.31	1673.19
810.49	1716.20
810.67	1695.72
810.84	1748.97
811.02	1681.38
811.20	1568.74
811.38	1718.25
811.56	1564.65
811.74	1656.81
811.92	1538.02
812.10	1746.92
812.28	1601.51
812.46	1732.58
812.64	1642.47
812.82	1636.33
813.00	1708.01
813.18	1581.03
813.36	1642.47
813.53	1736.68
813.71	1728.49
813.89	1724.39
814.07	1581.03
814.25	1667.05
814.43	1679.33
814.61	1669.09
814.79	1675.24
814.97	1685.48
815.15	1691.62
815.33	1585.13
815.50	1617.90
815.68	1601.51
815.86	1673.19
816.04	1646.57
816.22	1613.80
816.40	1673.19
816.58	1593.32
816.76	1572.84
816.94	1650.66
817.11	1574.89
817.29	1669.09
817.47	1652.71
817.65	1687.53
817.83	1699.81
818.01	1660.90
818.19	1548.26
818.37	1617.90
818.54	1697.77
818.72	1748.97
818.90	1710.05
819.08	1552.36
819.26	1703.91
819.44	1730.53
819.62	1650.66
819.80	1648.61
819.97	1740.77
820.15	1652.71
820.33	1601.51
820.51	1583.08
820.69	1634.28
820.87	1656.81
821.05	1648.61
821.22	1597.42
821.40	1675.24
821.58	1697.77
821.76	1632.23
821.94	1634.28
822.12	1609.70
822.29	1740.77
822.47	1642.47
822.65	1652.71
822.83	1609.70
823.01	1677.29
823.19	1613.80
823.36	1650.66
823.54	1640.42
823.72	1617.90
823.90	1675.24
824.08	1650.66
824.25	1683.43
824.43	1607.66
824.61	1646.57
824.79	1716.20
824.97	1599.46
825.15	1660.90
825.32	1572.84
825.50	1765.35
825.68	1621.99
825.86	1744.87
826.04	1630.18
826.21	1759.21
826.39	1642.47
826.57	1634.28
826.75	1724.39
826.93	1650.66
827.10	1746.92
827.28	1636.33
827.46	1650.66
827.64	1654.76
827.81	1699.81
827.99	1658.85
828.17	1640.42
828.35	1613.80
828.53	1634.28
828.70	1701.86
828.88	1591.27
829.06	1697.77
829.24	1722.34
829.41	1665.00
829.59	1718.25
829.77	1744.87
829.95	1742.82
830.12	1605.61
830.30	1662.95
830.48	1736.68
830.66	1638.38
830.84	1638.38
831.01	1728.49
831.19	1642.47
831.37	1722.34
831.55	1626.09
831.72	1718.25
831.90	1689.57
832.08	1687.53
832.25	1687.53
832.43	1677.29
832.61	1787.88
832.79	1613.80
832.96	1611.75
833.14	1691.62
833.32	1744.87
833.50	1589.22
833.67	1765.35
833.85	1585.13
834.03	1626.09
834.20	1681.38
834.38	1783.78
834.56	1759.21
834.74	1615.85
834.91	1667.05
835.09	1771.49
835.27	1552.36
835.44	1642.47
835.62	1626.09
835.80	1646.57
835.98	1615.85
836.15	1703.91
836.33	1708.01
836.51	1560.55
836.68	1609.70
836.86	1562.60
837.04	1634.28
837.21	1783.78
837.39	1673.19
837.57	1695.72
837.75	1650.66
837.92	1660.90
838.10	1642.47
838.28	1626.09
838.45	1617.90
838.63	1617.90
838.81	1701.86
838.98	1746.92
839.16	1691.62
839.34	1667.05
839.51	1626.09
839.69	1632.23
839.87	1513.45
840.04	1699.81
840.22	1857.51
840.40	1662.95
840.57	1599.46
840.75	1599.46
840.93	1607.66
841.10	1679.33
841.28	1716.20
841.46	1708.01
841.63	1658.85
841.81	1576.94
841.98	1533.93
842.16	1775.59
842.34	1566.70
842.51	1583.08
842.69	1654.76
842.87	1570.79
843.04	1662.95
843.22	1640.42
843.40	1609.70
843.57	1630.18
843.75	1640.42
843.92	1667.05
844.10	1617.90
844.28	1632.23
844.45	1564.65
844.63	1675.24
844.81	1642.47
844.98	1730.53
845.16	1658.85
845.33	1716.20
845.51	1679.33
845.69	1718.25
845.86	1734.63
846.04	1535.98
846.21	1646.57
846.39	1601.51
846.57	1578.98
846.74	1593.32
846.92	1812.45
847.09	1564.65
847.27	1656.81
847.45	1648.61
847.62	1587.18
847.80	1634.28
847.97	1667.05
848.15	1599.46
848.32	1652.71
848.50	1675.24
848.68	1654.76
848.85	1697.77
849.03	1558.50
849.20	1708.01
849.38	1638.38
849.56	1576.94
849.73	1572.84
849.91	1636.33
850.08	1755.11
850.26	1525.74
850.43	1615.85
850.61	1646.57
850.78	1535.98
850.96	1681.38
851.14	1499.11
851.31	1824.74
851.49	1753.06
851.66	1695.72
851.84	1531.88
852.01	1626.09
852.19	1624.04
852.36	1691.62
852.54	1650.66
852.71	1691.62
852.89	1673.19
853.07	1658.85
853.24	1665.00
853.42	1650.66
853.59	1656.81
853.77	1595.37
853.94	1773.54
854.12	1761.25
854.29	1562.60
854.47	1632.23
854.64	1640.42
854.82	1722.34
854.99	1697.77
855.17	1671.14
855.34	1591.27
855.52	1638.38
855.69	1802.21
855.87	1732.58
856.04	1636.33
856.22	1789.92
856.39	1603.56
856.57	1701.86
856.74	1697.77
856.92	1726.44
857.09	1589.22
857.27	1673.19
857.44	1638.38
857.62	1761.25
857.79	1679.33
857.97	1683.43
858.14	1624.04
858.32	1650.66
858.49	1644.52
858.67	1695.72
858.84	1662.95
859.02	1775.59
859.19	1679.33
859.37	1507.30
859.54	1640.42
859.72	1701.86
859.89	1712.10
860.06	1585.13
860.24	1648.61
860.41	1716.20
860.59	1611.75
860.76	1671.14
860.94	1601.51
861.11	1632.23
861.29	1732.58
861.46	1552.36
861.64	1693.67
861.81	1767.40
861.98	1630.18
862.16	1585.13
862.33	1597.42
862.51	1609.70
862.68	1679.33
862.86	1638.38
863.03	1609.70
863.21	1656.81
863.38	1578.98
863.55	1621.99
863.73	1705.96
863.90	1656.81
864.08	1650.66
864.25	1585.13
864.43	1697.77
864.60	1599.46
864.77	1652.71
864.95	1675.24
865.12	1591.27
865.30	1658.85
865.47	1648.61
865.64	1691.62
865.82	1671.14
865.99	1697.77
866.17	1660.90
866.34	1697.77
866.51	1583.08
866.69	1718.25
866.86	1789.92
867.04	1748.97
867.21	1609.70
867.38	1667.05
867.56	1621.99
867.73	1667.05
867.91	1677.29
868.08	1626.09
868.25	1560.55
868.43	1626.09
868.60	1613.80
868.78	1566.70
868.95	1669.09
869.12	1648.61
869.30	1693.67
869.47	1660.90
869.64	1753.06
869.82	1617.90
869.99	1634.28
870.16	1681.38
870.34	1705.96
870.51	1720.29
870.69	1511.40
870.86	1736.68
871.03	1656.81
871.21	1589.22
871.38	1712.10
871.55	1673.19
871.73	1636.33
871.90	1662.95
872.07	1632.23
872.25	1499.11
872.42	1619.94
872.59	1544.17
872.77	1624.04
872.94	1619.94
873.11	1681.38
873.29	1724.39
873.46	1654.76
873.63	1595.37
873.81	1548.26
873.98	1761.25
874.15	1535.98
874.33	1615.85
874.50	1703.91
874.67	1691.62
874.85	1550.31
875.02	1621.99
875.19	1687.53
875.37	1730.53
875.54	1603.56
875.71	1734.63
875.88	1742.82
876.06	1607.66
876.23	1720.29
876.40	1718.25
876.58	1712.10
876.75	1753.06
876.92	1630.18
877.10	1665.00
877.27	1679.33
877.44	1638.38
877.61	1679.33
877.79	1742.82
877.96	1687.53
878.13	1650.66
878.31	1632.23
878.48	1646.57
878.65	1753.06
878.82	1681.38
879.00	1589.22
879.17	1804.26
879.34	1617.90
879.51	1599.46
879.69	1636.33
879.86	1527.78
880.03	1587.18
880.21	1634.28
880.38	1624.04
880.55	1675.24
880.72	1703.91
880.90	1576.94
881.07	1605.61
881.24	1726.44
881.41	1630.18
881.59	1619.94
881.76	1646.57
881.93	1656.81
882.10	1654.76
882.28	1701.86
882.45	1726.44
882.62	1677.29
882.79	1701.86
882.96	1615.85
883.14	1677.29
883.31	1746.92
883.48	1523.69
883.65	1701.86
883.83	1628.14
884.00	1628.14
884.17	1572.84
884.34	1685.48
884.51	1730.53
884.69	1718.25
884.86	1630.18
885.03	1644.52
885.20	1529.83
885.38	1769.44
885.55	1621.99
885.72	1703.91
885.89	1630.18
886.06	1689.57
886.24	1595.37
886.41	1679.33
886.58	1648.61
886.75	1722.34
886.92	1605.61
887.10	1597.42
887.27	1576.94
887.44	1748.97
887.61	1736.68
887.78	1714.15
887.95	1615.85
888.13	1642.47
888.30	1675.24
888.47	1652.71
888.64	1689.57
888.81	1712.10
888.99	1576.94
889.16	1619.94
889.33	1566.70
889.50	1689.57
889.67	1679.33
889.84	1611.75
890.01	1669.09
890.19	1615.85
890.36	1667.05
890.53	1644.52
890.70	1656.81
890.87	1714.15
891.04	1519.59
891.22	1619.94
891.39	1548.26
891.56	1665.00
891.73	1677.29
891.90	1560.55
892.07	1439.72
892.24	1730.53
892.42	1630.18
892.59	1732.58
892.76	1755.11
892.93	1585.13
893.10	1640.42
893.27	1691.62
893.44	1511.40
893.61	1689.57
893.79	1685.48
893.96	1656.81
894.13	1630.18
894.30	1587.18
894.47	1722.34
894.64	1703.91
894.81	1576.94
894.98	1560.55
895.15	1712.10
895.33	1619.94
895.50	1619.94
895.67	1607.66
895.84	1597.42
896.01	1607.66
896.18	1558.50
896.35	1785.83
896.52	1603.56
896.69	1671.14
896.86	1591.27
897.04	1777.64
897.21	1685.48
897.38	1640.42
897.55	1624.04
897.72	1716.20
897.89	1665.00
898.06	1699.81
898.23	1648.61
898.40	1732.58
898.57	1628.14
898.74	1679.33
898.91	1728.49
899.08	1605.61
899.26	1638.38
899.43	1642.47
899.60	1615.85
899.77	1603.56
899.94	1593.32
900.11	1599.46
900.28	1619.94
900.45	1658.85
900.62	1560.55
900.79	1597.42
900.96	1691.62
901.13	1644.52
901.30	1564.65
901.47	1560.55
901.64	1644.52
901.81	1658.85
901.98	1540.07
902.15	1703.91
902.32	1589.22
902.49	1699.81
902.66	1687.53
902.83	1669.09
903.01	1613.80
903.18	1589.22
903.35	1607.66
903.52	1603.56
903.69	1671.14
903.86	1673.19
904.03	1642.47
904.20	1740.77
904.37	1703.91
904.54	1626.09
904.71	1605.61
904.88	1642.47
905.05	1564.65
905.22	1650.66
905.39	1568.74
905.56	1619.94
905.73	1601.51
905.90	1603.56
906.07	1724.39
906.24	1675.24
906.41	1638.38
906.58	1689.57
906.75	1652.71
906.92	1521.64
907.09	1566.70
907.26	1697.77
907.43	1574.89
907.60	1669.09
907.77	1671.14
907.93	1708.01
908.10	1611.75
908.27	1697.77
908.44	1624.04
908.61	1593.32
908.78	1642.47
908.95	1755.11
909.12	1687.53
909.29	1603.56
909.46	1732.58
909.63	1705.96
909.80	1578.98
909.97	1703.91
910.14	1665.00
910.31	1570.79
910.48	1634.28
910.65	1621.99
910.82	1656.81
910.99	1642.47
911.16	1621.99
911.33	1581.03
911.50	1632.23
911.66	1564.65
911.83	1658.85
912.00	1542.12
912.17	1576.94
912.34	1550.31
912.51	1650.66
912.68	1634.28
912.85	1626.09
913.02	1697.77
913.19	1640.42
913.36	1667.05
913.53	1636.33
913.70	1611.75
913.86	1757.16
914.03	1681.38
914.20	1603.56
914.37	1613.80
914.54	1699.81
914.71	1683.43
914.88	1660.90
915.05	1554.41
915.22	1630.18
915.39	1746.92
915.55	1675.24
915.72	1556.46
915.89	1660.90
916.06	1591.27
916.23	1548.26
916.40	1640.42
916.57	1509.35
916.74	1615.85
916.91	1650.66
917.07	1560.55
917.24	1578.98
917.41	1699.81
917.58	1667.05
917.75	1574.89
917.92	1495.02
918.09	1687.53
918.26	1642.47
918.42	1695.72
918.59	1722.34
918.76	1572.84
918.93	1591.27
919.10	1601.51
919.27	1716.20
919.44	1753.06
919.60	1712.10
919.77	1630.18
919.94	1640.42
920.11	1617.90
920.28	1736.68
920.45	1654.76
920.61	1527.78
920.78	1712.10
920.95	1671.14
921.12	1609.70
921.29	1521.64
921.46	1574.89
921.62	1609.70
921.79	1693.67
921.96	1650.66
922.13	1722.34
922.30	1615.85
922.47	1626.09
922.63	1617.90
922.80	1648.61
922.97	1546.22
923.14	1568.74
923.31	1578.98
923.47	1556.46
923.64	1796.07
923.81	1589.22
923.98	1714.15
924.15	1574.89
924.32	1648.61
924.48	1656.81
924.65	1693.67
924.82	1548.26
924.99	1617.90
925.15	1480.68
925.32	1808.36
925.49	1533.93
925.66	1652.71
925.83	1673.19
925.99	1564.65
926.16	1740.77
926.33	1767.40
926.50	1589.22
926.67	1720.29
926.83	1519.59
927.00	1648.61
927.17	1617.90
927.34	1673.19
927.50	1673.19
927.67	1863.65
927.84	1744.87
928.01	1607.66
928.17	1624.04
928.34	1644.52
928.51	1714.15
928.68	1601.51
928.84	1632.23
929.01	1581.03
929.18	1552.36
929.35	1687.53
929.51	1685.48
929.68	1689.57
929.85	1525.74
930.02	1685.48
930.18	1624.04
930.35	1640.42
930.52	1662.95
930.69	1642.47
930.85	1755.11
931.02	1624.04
931.19	1626.09
931.36	1599.46
931.52	1695.72
931.69	1699.81
931.86	1679.33
932.02	1626.09
932.19	1632.23
932.36	1677.29
932.53	1705.96
932.69	1576.94
932.86	1757.16
933.03	1603.56
933.19	1552.36
933.36	1699.81
933.53	1740.77
933.70	1624.04
933.86	1708.01
934.03	1662.95
934.20	1640.42
934.36	1675.24
934.53	1509.35
934.70	1591.27
934.86	1624.04
935.03	1603.56
935.20	1564.65
935.36	1650.66
935.53	1601.51
935.70	1597.42
935.86	1673.19
936.03	1564.65
936.20	1587.18
936.36	1628.14
936.53	1632.23
936.70	1628.14
936.86	1718.25
937.03	1593.32
937.20	1603.56
937.36	1714.15
937.53	1535.98
937.70	1544.17
937.86	1671.14
938.03	1638.38
938.20	1722.34
938.36	1615.85
938.53	1720.29
938.70	1546.22
938.86	1685.48
939.03	1581.03
939.20	1613.80
939.36	1593.32
939.53	1765.35
939.70	1918.95
939.86	1662.95
940.03	1654.76
940.19	1554.41
940.36	1671.14
940.53	1701.86
940.69	1665.00
940.86	1658.85
941.03	1595.37
941.19	1546.22
941.36	1726.44
941.52	1714.15
941.69	1683.43
941.86	1632.23
942.02	1607.66
942.19	1687.53
942.35	1675.24
942.52	1675.24
942.69	1658.85
942.85	1585.13
943.02	1638.38
943.18	1673.19
943.35	1613.80
943.52	1621.99
943.68	1589.22
943.85	1665.00
944.01	1578.98
944.18	1615.85
944.35	1720.29
944.51	1685.48
944.68	1583.08
944.84	1654.76
945.01	1638.38
945.17	1626.09
945.34	1593.32
945.51	1669.09
945.67	1665.00
945.84	1714.15
946.00	1576.94
946.17	1703.91
946.33	1609.70
946.50	1716.20
946.67	1671.14
946.83	1593.32
947.00	1669.09
947.16	1568.74
947.33	1683.43
947.49	1581.03
947.66	1587.18
947.82	1748.97
947.99	1546.22
948.16	1662.95
948.32	1601.51
948.49	1662.95
948.65	1634.28
948.82	1617.90
948.98	1660.90
949.15	1628.14
949.31	1658.85
949.48	1654.76
949.64	1665.00
949.81	1605.61
949.97	1587.18
950.14	1673.19
950.30	1480.68
950.47	1632.23
950.63	1587.18
950.80	1652.71
950.96	1613.80
951.13	1587.18
951.30	1671.14
951.46	1662.95
951.63	1644.52
951.79	1667.05
951.96	1654.76
952.12	1650.66
952.29	1611.75
952.45	1576.94
952.62	1681.38
952.78	1626.09
952.94	1665.00
953.11	1558.50
953.27	1603.56
953.44	1642.47
953.60	1677.29
953.77	1689.57
953.93	1634.28
954.10	1656.81
954.26	1658.85
954.43	1648.61
954.59	1687.53
954.76	1767.40
954.92	1626.09
955.09	1681.38
955.25	1718.25
955.42	1667.05
955.58	1712.10
955.75	1636.33
955.91	1554.41
956.07	1712.10
956.24	1689.57
956.40	1617.90
956.57	1658.85
956.73	1624.04
956.90	1679.33
957.06	1624.04
957.23	1566.70
957.39	1677.29
957.56	1597.42
957.72	1460.20
957.88	1531.88
958.05	1624.04
958.21	1679.33
958.38	1652.71
958.54	1644.52
958.71	1697.77
958.87	1621.99
959.03	1603.56
959.20	1628.14
959.36	1634.28
959.53	1648.61
959.69	1624.04
959.85	1634.28
960.02	1597.42
960.18	1589.22
960.35	1619.94
960.51	1705.96
960.68	1593.32
960.84	1675.24
961.00	1572.84
961.17	1630.18
961.33	1593.32
961.50	1587.18
961.66	1744.87
961.82	1581.03
961.99	1665.00
962.15	1574.89
962.31	1597.42
962.48	1626.09
962.64	1712.10
962.81	1658.85
962.97	1724.39
963.13	1716.20
963.30	1560.55
963.46	1544.17
963.62	1613.80
963.79	1581.03
963.95	1603.56
964.12	1558.50
964.28	1628.14
964.44	1667.05
964.61	1683.43
964.77	1595.37
964.93	1777.64
965.10	1613.80
965.26	1609.70
965.42	1566.70
965.59	1593.32
965.75	1607.66
965.92	1632.23
966.08	1658.85
966.24	1611.75
966.41	1607.66
966.57	1669.09
966.73	1714.15
966.90	1644.52
967.06	1636.33
967.22	1642.47
967.39	1636.33
967.55	1564.65
967.71	1634.28
967.88	1660.90
968.04	1720.29
968.20	1523.69
968.37	1585.13
968.53	1654.76
968.69	1626.09
968.85	1742.82
969.02	1695.72
969.18	1675.24
969.34	1636.33
969.51	1652.71
969.67	1703.91
969.83	1605.61
970.00	1656.81
970.16	1642.47
970.32	1640.42
970.48	1683.43
970.65	1603.56
970.81	1640.42
970.97	1615.85
971.14	1542.12
971.30	1771.49
971.46	1581.03
971.63	1628.14
971.79	1716.20
971.95	1648.61
972.11	1568.74
972.28	1662.95
972.44	1626.09
972.60	1527.78
972.76	1658.85
972.93	1570.79
973.09	1753.06
973.25	1654.76
973.42	1593.32
973.58	1652.71
973.74	1679.33
973.90	1697.77
974.07	1593.32
974.23	1599.46
974.39	1667.05
974.55	1576.94
974.72	1591.27
974.88	1601.51
975.04	1648.61
975.20	1669.09
975.37	1603.56
975.53	1589.22
975.69	1662.95
975.85	1669.09
976.01	1617.90
976.18	1640.42
976.34	1621.99
976.50	1695.72
976.66	1681.38
976.83	1568.74
976.99	1656.81
977.15	1658.85
977.31	1574.89
977.47	1675.24
977.64	1624.04
977.80	1617.90
977.96	1632.23
978.12	1607.66
978.29	1662.95
978.45	1538.02
978.61	1552.36
978.77	1677.29
978.93	1519.59
979.10	1585.13
979.26	1613.80
979.42	1601.51
979.58	1554.41
979.74	1540.07
979.91	1619.94
980.07	1593.32
980.23	1609.70
980.39	1621.99
980.55	1603.56
980.71	1583.08
980.88	1550.31
981.04	1533.93
981.20	1710.05
981.36	1658.85
981.52	1613.80
981.68	1568.74
981.85	1662.95
982.01	1714.15
982.17	1564.65
982.33	1581.03
982.49	1687.53
982.65	1644.52
982.82	1660.90
982.98	1560.55
983.14	1595.37
983.30	1677.29
983.46	1570.79
983.62	1673.19
983.79	1552.36
983.95	1656.81
984.11	1486.83
984.27	1656.81
984.43	1705.96
984.59	1572.84
984.75	1691.62
984.91	1589.22
985.08	1621.99
985.24	1560.55
985.40	1583.08
985.56	1630.18
985.72	1605.61
985.88	1656.81
986.04	1607.66
986.20	1603.56
986.37	1617.90
986.53	1535.98
986.69	1683.43
986.85	1533.93
987.01	1617.90
987.17	1540.07
987.33	1601.51
987.49	1621.99
987.65	1691.62
987.82	1619.94
987.98	1552.36
988.14	1611.75
988.30	1642.47
988.46	1638.38
988.62	1624.04
988.78	1646.57
988.94	1644.52
989.10	1615.85
989.26	1578.98
989.42	1665.00
989.59	1660.90
989.75	1642.47
989.91	1701.86
990.07	1650.66
990.23	1589.22
990.39	1576.94
990.55	1669.09
990.71	1568.74
990.87	1603.56
991.03	1630.18
991.19	1554.41
991.35	1583.08
991.51	1597.42
991.67	1597.42
991.83	1665.00
992.00	1658.85
992.16	1650.66
992.32	1675.24
992.48	1662.95
992.64	1503.21
992.80	1679.33
992.96	1578.98
993.12	1593.32
993.28	1609.70
993.44	1615.85
993.60	1617.90
993.76	1607.66
993.92	1675.24
994.08	1679.33
994.24	1613.80
994.40	1626.09
994.56	1607.66
994.72	1642.47
994.88	1521.64
995.04	1642.47
995.20	1621.99
995.36	1554.41
995.52	1693.67
995.68	1613.80
995.84	1572.84
996.00	1718.25
996.16	1587.18
996.32	1556.46
996.48	1650.66
996.64	1708.01
996.80	1626.09
996.96	1646.57
997.12	1628.14
997.28	1535.98
997.44	1599.46
997.60	1556.46
997.76	1617.90
997.92	1679.33
998.08	1654.76
998.24	1492.97
998.40	1595.37
998.56	1693.67
998.72	1507.30
998.88	1566.70
999.04	1638.38
999.20	1728.49
999.36	1628.14
999.52	1730.53
999.68	1640.42
999.84	1679.33
1000.00	1662.95
1000.16	1619.94
1000.32	1552.36
1000.48	1748.97
1000.64	1568.74
1000.80	1527.78
1000.95	1511.40
1001.11	1685.48
1001.27	1535.98
1001.43	1615.85
1001.59	1626.09
1001.75	1607.66
1001.91	1617.90
1002.07	1609.70
1002.23	1607.66
1002.39	1535.98
1002.55	1591.27
1002.71	1576.94
1002.87	1593.32
1003.03	1529.83
1003.19	1589.22
1003.34	1607.66
1003.50	1560.55
1003.66	1699.81
1003.82	1626.09
1003.98	1562.60
1004.14	1611.75
1004.30	1597.42
1004.46	1576.94
1004.62	1511.40
1004.78	1593.32
1004.94	1564.65
1005.09	1587.18
1005.25	1689.57
1005.41	1634.28
1005.57	1626.09
1005.73	1578.98
1005.89	1650.66
1006.05	1656.81
1006.21	1656.81
1006.37	1587.18
1006.52	1531.88
1006.68	1546.22
1006.84	1699.81
1007.00	1599.46
1007.16	1603.56
1007.32	1578.98
1007.48	1578.98
1007.64	1613.80
1007.79	1560.55
1007.95	1519.59
1008.11	1705.96
1008.27	1630.18
1008.43	1556.46
1008.59	1556.46
1008.75	1699.81
1008.91	1615.85
1009.06	1583.08
1009.22	1662.95
1009.38	1673.19
1009.54	1626.09
1009.70	1609.70
1009.86	1574.89
1010.01	1617.90
1010.17	1564.65
1010.33	1644.52
1010.49	1652.71
1010.65	1667.05
1010.81	1593.32
1010.96	1609.70
1011.12	1576.94
1011.28	1535.98
1011.44	1658.85
1011.60	1621.99
1011.76	1658.85
1011.91	1738.73
1012.07	1613.80
1012.23	1609.70
1012.39	1564.65
1012.55	1679.33
1012.71	1572.84
1012.86	1597.42
1013.02	1583.08
1013.18	1632.23
1013.34	1576.94
1013.50	1603.56
1013.65	1673.19
1013.81	1564.65
1013.97	1574.89
1014.13	1619.94
1014.29	1628.14
1014.44	1697.77
1014.60	1634.28
1014.76	1574.89
1014.92	1599.46
1015.07	1665.00
1015.23	1677.29
1015.39	1507.30
1015.55	1634.28
1015.71	1581.03
1015.86	1587.18
1016.02	1630.18
1016.18	1492.97
1016.34	1613.80
1016.49	1660.90
1016.65	1693.67
1016.81	1566.70
1016.97	1570.79
1017.12	1626.09
1017.28	1583.08
1017.44	1576.94
1017.60	1613.80
1017.75	1603.56
1017.91	1552.36
1018.07	1589.22
1018.23	1687.53
1018.38	1572.84
1018.54	1595.37
1018.70	1677.29
1018.86	1585.13
1019.01	1515.50
1019.17	1634.28
1019.33	1765.35
1019.49	1648.61
1019.64	1652.71
1019.80	1695.72
1019.96	1667.05
1020.12	1630.18
1020.27	1527.78
1020.43	1603.56
1020.59	1673.19
1020.74	1701.86
1020.90	1632.23
1021.06	1566.70
1021.22	1644.52
1021.37	1587.18
1021.53	1638.38
1021.69	1607.66
1021.84	1578.98
1022.00	1597.42
1022.16	1507.30
1022.31	1578.98
1022.47	1699.81
1022.63	1636.33
1022.79	1556.46
1022.94	1548.26
1023.10	1712.10
1023.26	1617.90
1023.41	1560.55
1023.57	1564.65
1023.73	1597.42
1023.88	1652.71
1024.04	1570.79
1024.20	1564.65
1024.35	1605.61
1024.51	1640.42
1024.67	1640.42
1024.82	1800.16
1024.98	1497.07
1025.14	1626.09
1025.29	1638.38
1025.45	1703.91
1025.61	1531.88
1025.76	1593.32
1025.92	1640.42
1026.08	1638.38
1026.23	1695.72
1026.39	1716.20
1026.55	1593.32
1026.70	1615.85
1026.86	1621.99
1027.02	1687.53
1027.17	1589.22
1027.33	1687.53
1027.48	1611.75
1027.64	1542.12
1027.80	1585.13
1027.95	1548.26
1028.11	1581.03
1028.27	1621.99
1028.42	1675.24
1028.58	1591.27
1028.73	1593.32
1028.89	1615.85
1029.05	1632.23
1029.20	1691.62
>>>>>End Processed Spectral Data<<<<<
