SpectraSuite Data File
++++++++++++++++++++++++++++++++++++
Date: Fri Jun 02 14:53:28 CEST 2017
User: INFO_000
Dark Spectrum Present: No
Reference Spectrum Present: No
Number of Sampled Component Spectra: 1
Spectrometers: USB4H00879
Integration Time (usec): 80000 (USB4H00879)
Spectra Averaged: 1 (USB4H00879)
Boxcar Smoothing: 0 (USB4H00879)
Correct for Electrical Dark: No (USB4H00879)
Strobe/Lamp Enabled: No (USB4H00879)
Correct for Detector Non-linearity: No (USB4H00879)
Correct for Stray Light: No (USB4H00879)
Number of Pixels in Processed Spectrum: 3648
>>>>>Begin Processed Spectral Data<<<<<
345.13	1310.70
345.34	1310.70
345.56	1310.70
345.78	1351.66
345.99	1298.41
346.21	1685.48
346.42	1675.24
346.64	1615.85
346.86	1822.69
347.07	1667.05
347.29	1699.81
347.50	1667.05
347.72	1703.91
347.94	1781.73
348.15	1593.32
348.37	1636.33
348.59	1654.76
348.80	1673.19
349.02	1662.95
349.23	1714.15
349.45	1755.11
349.67	1777.64
349.88	1699.81
350.10	1791.97
350.31	1742.82
350.53	1673.19
350.75	1830.88
350.96	1656.81
351.18	1716.20
351.39	1763.30
351.61	1683.43
351.82	1830.88
352.04	1777.64
352.26	1722.34
352.47	1724.39
352.69	1787.88
352.90	1599.46
353.12	1679.33
353.34	1732.58
353.55	1781.73
353.77	1703.91
353.98	1673.19
354.20	1636.33
354.41	1779.68
354.63	1771.49
354.85	1900.52
355.06	1755.11
355.28	1669.09
355.49	1736.68
355.71	1693.67
355.92	1755.11
356.14	1740.77
356.35	1712.10
356.57	1724.39
356.79	1746.92
357.00	1757.16
357.22	1789.92
357.43	1675.24
357.65	1779.68
357.86	1683.43
358.08	1722.34
358.29	1722.34
358.51	1775.59
358.72	1767.40
358.94	1658.85
359.16	1689.57
359.37	1675.24
359.59	1884.13
359.80	1765.35
360.02	1738.73
360.23	1773.54
360.45	1701.86
360.66	1658.85
360.88	1658.85
361.09	1677.29
361.31	1734.63
361.52	1726.44
361.74	1830.88
361.95	1912.80
362.17	1675.24
362.38	1826.79
362.60	1789.92
362.81	1683.43
363.03	1615.85
363.24	1634.28
363.46	1841.12
363.67	1714.15
363.89	1757.16
364.10	1691.62
364.32	1714.15
364.53	1718.25
364.75	1654.76
364.96	1699.81
365.18	1789.92
365.39	1703.91
365.61	1689.57
365.82	1853.41
366.04	1656.81
366.25	1615.85
366.47	1716.20
366.68	1693.67
366.90	1621.99
367.11	1847.27
367.33	1777.64
367.54	1644.52
367.76	1687.53
367.97	1781.73
368.19	1632.23
368.40	1683.43
368.62	1624.04
368.83	1640.42
369.05	1769.44
369.26	1669.09
369.48	1722.34
369.69	1681.38
369.91	1665.00
370.12	1658.85
370.33	1769.44
370.55	1640.42
370.76	1765.35
370.98	1697.77
371.19	1746.92
371.41	1675.24
371.62	1738.73
371.84	1591.27
372.05	1814.50
372.27	1693.67
372.48	1654.76
372.69	1632.23
372.91	1738.73
373.12	1787.88
373.34	1656.81
373.55	1724.39
373.77	1789.92
373.98	1609.70
374.20	1710.05
374.41	1787.88
374.62	1693.67
374.84	1753.06
375.05	1679.33
375.27	1640.42
375.48	1648.61
375.70	1687.53
375.91	1822.69
376.12	1851.36
376.34	1718.25
376.55	1757.16
376.77	1748.97
376.98	1624.04
377.19	1667.05
377.41	1642.47
377.62	1728.49
377.84	1699.81
378.05	1853.41
378.27	1705.96
378.48	1734.63
378.69	1839.08
378.91	1740.77
379.12	1765.35
379.34	1679.33
379.55	1740.77
379.76	1728.49
379.98	1691.62
380.19	1693.67
380.41	1722.34
380.62	1843.17
380.83	1642.47
381.05	1615.85
381.26	1810.40
381.47	1662.95
381.69	1720.29
381.90	1740.77
382.12	1681.38
382.33	1710.05
382.54	1679.33
382.76	1728.49
382.97	1679.33
383.19	1611.75
383.40	1794.02
383.61	1730.53
383.83	1628.14
384.04	1675.24
384.25	1679.33
384.47	1708.01
384.68	1771.49
384.89	1667.05
385.11	1581.03
385.32	1681.38
385.54	1636.33
385.75	1574.89
385.96	1748.97
386.18	1740.77
386.39	1734.63
386.60	1681.38
386.82	1699.81
387.03	1695.72
387.24	1804.26
387.46	1683.43
387.67	1722.34
387.88	1773.54
388.10	1693.67
388.31	1667.05
388.52	1742.82
388.74	1650.66
388.95	1712.10
389.16	1753.06
389.38	1619.94
389.59	1785.83
389.80	1732.58
390.02	1685.48
390.23	1822.69
390.44	1720.29
390.66	1642.47
390.87	1654.76
391.08	1634.28
391.30	1748.97
391.51	1761.25
391.72	1804.26
391.94	1755.11
392.15	1740.77
392.36	1665.00
392.58	1648.61
392.79	1732.58
393.00	1726.44
393.22	1710.05
393.43	1712.10
393.64	1865.70
393.85	1773.54
394.07	1654.76
394.28	1820.64
394.49	1701.86
394.71	1771.49
394.92	1746.92
395.13	1609.70
395.35	1714.15
395.56	1601.51
395.77	1720.29
395.98	1769.44
396.20	1703.91
396.41	1701.86
396.62	1746.92
396.84	1589.22
397.05	1640.42
397.26	1697.77
397.47	1736.68
397.69	1621.99
397.90	1853.41
398.11	1734.63
398.32	1648.61
398.54	1587.18
398.75	1658.85
398.96	1662.95
399.18	1822.69
399.39	1691.62
399.60	1738.73
399.81	1712.10
400.03	1574.89
400.24	1978.34
400.45	1769.44
400.66	1728.49
400.88	1636.33
401.09	1908.71
401.30	1669.09
401.51	1781.73
401.73	1794.02
401.94	1697.77
402.15	1705.96
402.36	1691.62
402.58	1744.87
402.79	1753.06
403.00	1718.25
403.21	1757.16
403.43	1714.15
403.64	1845.22
403.85	1644.52
404.06	1722.34
404.27	1570.79
404.49	1634.28
404.70	1660.90
404.91	1791.97
405.12	1761.25
405.34	1746.92
405.55	1832.93
405.76	1570.79
405.97	1658.85
406.19	1845.22
406.40	1576.94
406.61	1722.34
406.82	1636.33
407.03	1722.34
407.25	1665.00
407.46	1757.16
407.67	1798.12
407.88	1773.54
408.09	1716.20
408.31	1726.44
408.52	1716.20
408.73	1624.04
408.94	1644.52
409.15	1687.53
409.37	1773.54
409.58	1722.34
409.79	1726.44
410.00	1804.26
410.21	1718.25
410.43	1759.21
410.64	1673.19
410.85	1746.92
411.06	1697.77
411.27	1736.68
411.48	1771.49
411.70	1726.44
411.91	1693.67
412.12	1828.84
412.33	1794.02
412.54	1695.72
412.76	1648.61
412.97	1779.68
413.18	1687.53
413.39	1789.92
413.60	1771.49
413.81	1773.54
414.03	1662.95
414.24	1654.76
414.45	1820.64
414.66	1675.24
414.87	1662.95
415.08	1703.91
415.30	1708.01
415.51	1728.49
415.72	1710.05
415.93	1673.19
416.14	1771.49
416.35	1687.53
416.56	1791.97
416.78	1697.77
416.99	1773.54
417.20	1748.97
417.41	1816.55
417.62	1652.71
417.83	1748.97
418.04	1740.77
418.26	1769.44
418.47	1716.20
418.68	1769.44
418.89	1740.77
419.10	1839.08
419.31	1826.79
419.52	1720.29
419.73	1710.05
419.95	1722.34
420.16	1609.70
420.37	1714.15
420.58	1714.15
420.79	1523.69
421.00	1669.09
421.21	1785.83
421.42	1656.81
421.63	1669.09
421.85	1662.95
422.06	1662.95
422.27	1710.05
422.48	1679.33
422.69	1691.62
422.90	1619.94
423.11	1658.85
423.32	1867.75
423.53	1701.86
423.75	1662.95
423.96	1689.57
424.17	1718.25
424.38	1779.68
424.59	1658.85
424.80	1677.29
425.01	1634.28
425.22	1585.13
425.43	1744.87
425.64	1814.50
425.85	1818.60
426.06	1734.63
426.28	1681.38
426.49	1654.76
426.70	1597.42
426.91	1609.70
427.12	1744.87
427.33	1687.53
427.54	1728.49
427.75	1753.06
427.96	1755.11
428.17	1755.11
428.38	1683.43
428.59	1806.31
428.80	1699.81
429.01	1660.90
429.23	1683.43
429.44	1599.46
429.65	1794.02
429.86	1722.34
430.07	1695.72
430.28	1634.28
430.49	1718.25
430.70	1699.81
430.91	1906.66
431.12	1644.52
431.33	1693.67
431.54	1787.88
431.75	1677.29
431.96	1736.68
432.17	1683.43
432.38	1787.88
432.59	1820.64
432.80	1863.65
433.01	1708.01
433.22	1701.86
433.43	1705.96
433.64	1759.21
433.85	1753.06
434.06	1667.05
434.27	1705.96
434.49	1671.14
434.70	1710.05
434.91	1679.33
435.12	1769.44
435.33	1681.38
435.54	1734.63
435.75	1548.26
435.96	1722.34
436.17	1718.25
436.38	1767.40
436.59	1757.16
436.80	1611.75
437.01	1740.77
437.22	1730.53
437.43	1699.81
437.64	1648.61
437.85	1826.79
438.06	1732.58
438.27	1732.58
438.48	1679.33
438.69	1681.38
438.90	1669.09
439.11	1576.94
439.32	1783.78
439.53	1603.56
439.74	1687.53
439.95	1628.14
440.16	1601.51
440.37	1763.30
440.57	1650.66
440.78	1763.30
440.99	1708.01
441.20	1665.00
441.41	1581.03
441.62	1613.80
441.83	1685.48
442.04	1560.55
442.25	1654.76
442.46	1609.70
442.67	1658.85
442.88	1787.88
443.09	1679.33
443.30	1595.37
443.51	1685.48
443.72	1748.97
443.93	1675.24
444.14	1714.15
444.35	1671.14
444.56	1669.09
444.77	1699.81
444.98	1720.29
445.19	1685.48
445.40	1687.53
445.61	1628.14
445.81	1658.85
446.02	1724.39
446.23	1722.34
446.44	1701.86
446.65	1730.53
446.86	1681.38
447.07	1841.12
447.28	1697.77
447.49	1654.76
447.70	1716.20
447.91	1777.64
448.12	1638.38
448.33	1759.21
448.54	1689.57
448.74	1619.94
448.95	1644.52
449.16	1705.96
449.37	1740.77
449.58	1775.59
449.79	1808.36
450.00	1691.62
450.21	1689.57
450.42	1669.09
450.63	1748.97
450.84	1626.09
451.05	1703.91
451.25	1740.77
451.46	1621.99
451.67	1806.31
451.88	1744.87
452.09	1742.82
452.30	1648.61
452.51	1697.77
452.72	1791.97
452.93	1839.08
453.13	1658.85
453.34	1648.61
453.55	1751.01
453.76	1648.61
453.97	1703.91
454.18	1550.31
454.39	1791.97
454.60	1667.05
454.81	1662.95
455.01	1738.73
455.22	1634.28
455.43	1583.08
455.64	1716.20
455.85	1738.73
456.06	1699.81
456.27	1710.05
456.48	1683.43
456.68	1648.61
456.89	1837.03
457.10	1654.76
457.31	1609.70
457.52	1697.77
457.73	1705.96
457.94	1687.53
458.14	1507.30
458.35	1685.48
458.56	1753.06
458.77	1681.38
458.98	1679.33
459.19	1691.62
459.39	1714.15
459.60	1710.05
459.81	1675.24
460.02	1675.24
460.23	1712.10
460.44	1679.33
460.65	1656.81
460.85	1626.09
461.06	1732.58
461.27	1652.71
461.48	1648.61
461.69	1621.99
461.89	1619.94
462.10	1642.47
462.31	1671.14
462.52	1656.81
462.73	1640.42
462.94	1687.53
463.14	1667.05
463.35	1662.95
463.56	1814.50
463.77	1697.77
463.98	1607.66
464.18	1673.19
464.39	1751.01
464.60	1736.68
464.81	1558.50
465.02	1708.01
465.23	1740.77
465.43	1669.09
465.64	1675.24
465.85	1671.14
466.06	1679.33
466.27	1681.38
466.47	1705.96
466.68	1785.83
466.89	1630.18
467.10	1589.22
467.30	1650.66
467.51	1759.21
467.72	1773.54
467.93	1611.75
468.14	1564.65
468.34	1759.21
468.55	1658.85
468.76	1794.02
468.97	1740.77
469.17	1771.49
469.38	1748.97
469.59	1767.40
469.80	1724.39
470.01	1691.62
470.21	1630.18
470.42	1634.28
470.63	1667.05
470.84	1832.93
471.04	1677.29
471.25	1785.83
471.46	1699.81
471.67	1748.97
471.87	1697.77
472.08	1771.49
472.29	1691.62
472.50	1687.53
472.70	1726.44
472.91	1628.14
473.12	1583.08
473.33	1683.43
473.53	1695.72
473.74	1634.28
473.95	1722.34
474.16	1583.08
474.36	1628.14
474.57	1722.34
474.78	1621.99
474.99	1769.44
475.19	1648.61
475.40	1708.01
475.61	1708.01
475.81	1701.86
476.02	1689.57
476.23	1738.73
476.44	1648.61
476.64	1642.47
476.85	1722.34
477.06	1650.66
477.27	1693.67
477.47	1810.40
477.68	1712.10
477.89	1716.20
478.09	1720.29
478.30	1753.06
478.51	1722.34
478.71	1638.38
478.92	1783.78
479.13	1710.05
479.34	1667.05
479.54	1724.39
479.75	1687.53
479.96	1658.85
480.16	1624.04
480.37	1728.49
480.58	1648.61
480.78	1796.07
480.99	1658.85
481.20	1728.49
481.41	1734.63
481.61	1767.40
481.82	1816.55
482.03	1630.18
482.23	1619.94
482.44	1865.70
482.65	1941.47
482.85	1753.06
483.06	1646.57
483.27	1712.10
483.47	1753.06
483.68	1716.20
483.89	1716.20
484.09	1720.29
484.30	1730.53
484.51	1767.40
484.71	1624.04
484.92	1701.86
485.13	1748.97
485.33	1675.24
485.54	1673.19
485.75	1718.25
485.95	1771.49
486.16	1699.81
486.37	1753.06
486.57	1585.13
486.78	1626.09
486.98	1716.20
487.19	1667.05
487.40	1658.85
487.60	1691.62
487.81	1658.85
488.02	1595.37
488.22	1603.56
488.43	1822.69
488.64	1699.81
488.84	1630.18
489.05	1755.11
489.25	1705.96
489.46	1705.96
489.67	1667.05
489.87	1748.97
490.08	1738.73
490.29	1611.75
490.49	1800.16
490.70	1732.58
490.90	1683.43
491.11	1658.85
491.32	1683.43
491.52	1626.09
491.73	1673.19
491.94	1718.25
492.14	1615.85
492.35	1615.85
492.55	1748.97
492.76	1677.29
492.97	1662.95
493.17	1695.72
493.38	1726.44
493.58	1710.05
493.79	1708.01
494.00	1683.43
494.20	1662.95
494.41	1769.44
494.61	1751.01
494.82	1667.05
495.02	1576.94
495.23	1773.54
495.44	1648.61
495.64	1779.68
495.85	1603.56
496.05	1710.05
496.26	1746.92
496.47	1716.20
496.67	1646.57
496.88	1738.73
497.08	1660.90
497.29	1675.24
497.49	1740.77
497.70	1703.91
497.91	1703.91
498.11	1773.54
498.32	1757.16
498.52	1796.07
498.73	1791.97
498.93	1667.05
499.14	1714.15
499.34	1773.54
499.55	1730.53
499.76	1599.46
499.96	1705.96
500.17	1679.33
500.37	1689.57
500.58	1662.95
500.78	1624.04
500.99	1640.42
501.19	1675.24
501.40	1705.96
501.60	1648.61
501.81	1613.80
502.02	1734.63
502.22	1630.18
502.43	1634.28
502.63	1861.60
502.84	1730.53
503.04	1724.39
503.25	1691.62
503.45	1675.24
503.66	1613.80
503.86	1746.92
504.07	1716.20
504.27	1660.90
504.48	1701.86
504.68	1634.28
504.89	1837.03
505.09	1609.70
505.30	1689.57
505.50	1667.05
505.71	1732.58
505.91	1742.82
506.12	1708.01
506.32	1695.72
506.53	1640.42
506.73	1730.53
506.94	1669.09
507.14	1667.05
507.35	1777.64
507.55	1695.72
507.76	1718.25
507.96	1724.39
508.17	1761.25
508.37	1650.66
508.58	1773.54
508.78	1820.64
508.99	1804.26
509.19	1753.06
509.40	1697.77
509.60	1703.91
509.81	1738.73
510.01	1675.24
510.22	1658.85
510.42	1697.77
510.63	1732.58
510.83	1675.24
511.04	1658.85
511.24	1781.73
511.44	1744.87
511.65	1720.29
511.85	1669.09
512.06	1785.83
512.26	1658.85
512.47	1787.88
512.67	1716.20
512.88	1765.35
513.08	1693.67
513.29	1812.45
513.49	1677.29
513.69	1621.99
513.90	1603.56
514.10	1781.73
514.31	1736.68
514.51	1716.20
514.72	1695.72
514.92	1656.81
515.13	1615.85
515.33	1615.85
515.53	1667.05
515.74	1832.93
515.94	1722.34
516.15	1726.44
516.35	1587.18
516.56	1630.18
516.76	1626.09
516.96	1720.29
517.17	1703.91
517.37	1699.81
517.58	1656.81
517.78	1755.11
517.99	1748.97
518.19	1826.79
518.39	1722.34
518.60	1738.73
518.80	1671.14
519.01	1783.78
519.21	1699.81
519.41	1740.77
519.62	1687.53
519.82	1753.06
520.03	1646.57
520.23	1597.42
520.43	1638.38
520.64	1714.15
520.84	1744.87
521.05	1599.46
521.25	1785.83
521.45	1673.19
521.66	1687.53
521.86	1720.29
522.07	1759.21
522.27	1744.87
522.47	1611.75
522.68	1708.01
522.88	1701.86
523.08	1732.58
523.29	1570.79
523.49	1710.05
523.70	1685.48
523.90	1687.53
524.10	1730.53
524.31	1654.76
524.51	1564.65
524.71	1703.91
524.92	1703.91
525.12	1593.32
525.33	1724.39
525.53	1755.11
525.73	1759.21
525.94	1679.33
526.14	1685.48
526.34	1650.66
526.55	1673.19
526.75	1619.94
526.95	1767.40
527.16	1617.90
527.36	1746.92
527.56	1732.58
527.77	1689.57
527.97	1746.92
528.17	1681.38
528.38	1753.06
528.58	1755.11
528.78	1728.49
528.99	1640.42
529.19	1724.39
529.39	1634.28
529.60	1630.18
529.80	1644.52
530.00	1667.05
530.21	1757.16
530.41	1650.66
530.61	1724.39
530.82	1691.62
531.02	1660.90
531.22	1722.34
531.43	1689.57
531.63	1714.15
531.83	1701.86
532.04	1767.40
532.24	1675.24
532.44	1687.53
532.64	1785.83
532.85	1624.04
533.05	1583.08
533.25	1669.09
533.46	1708.01
533.66	1769.44
533.86	1683.43
534.07	1714.15
534.27	1624.04
534.47	1753.06
534.67	1683.43
534.88	1673.19
535.08	1710.05
535.28	1757.16
535.49	1681.38
535.69	1802.21
535.89	1753.06
536.09	1789.92
536.30	1685.48
536.50	1693.67
536.70	1718.25
536.91	1585.13
537.11	1808.36
537.31	1626.09
537.51	1724.39
537.72	1607.66
537.92	1742.82
538.12	1804.26
538.32	1761.25
538.53	1736.68
538.73	1685.48
538.93	1662.95
539.13	1671.14
539.34	1751.01
539.54	1628.14
539.74	1744.87
539.94	1667.05
540.15	1759.21
540.35	1716.20
540.55	1673.19
540.75	1597.42
540.96	1689.57
541.16	1701.86
541.36	1681.38
541.56	1697.77
541.77	1783.78
541.97	1761.25
542.17	1650.66
542.37	1785.83
542.58	1667.05
542.78	1783.78
542.98	1675.24
543.18	1656.81
543.38	1769.44
543.59	1796.07
543.79	1687.53
543.99	1644.52
544.19	1609.70
544.40	1701.86
544.60	1683.43
544.80	1699.81
545.00	1613.80
545.20	1777.64
545.41	1710.05
545.61	1681.38
545.81	1724.39
546.01	1687.53
546.21	1693.67
546.42	1732.58
546.62	1775.59
546.82	1576.94
547.02	1634.28
547.22	1736.68
547.43	1826.79
547.63	1724.39
547.83	1728.49
548.03	1607.66
548.23	1761.25
548.44	1703.91
548.64	1581.03
548.84	1734.63
549.04	1654.76
549.24	1802.21
549.45	1982.43
549.65	1642.47
549.85	1708.01
550.05	1748.97
550.25	1542.12
550.45	1769.44
550.66	1765.35
550.86	1720.29
551.06	1697.77
551.26	1650.66
551.46	1712.10
551.66	1753.06
551.87	1806.31
552.07	1703.91
552.27	1728.49
552.47	1779.68
552.67	1742.82
552.87	1658.85
553.07	1777.64
553.28	1722.34
553.48	1716.20
553.68	1601.51
553.88	1738.73
554.08	1728.49
554.28	1595.37
554.48	1673.19
554.69	1699.81
554.89	1683.43
555.09	1550.31
555.29	1603.56
555.49	1695.72
555.69	1705.96
555.89	1736.68
556.10	1798.12
556.30	1665.00
556.50	1732.58
556.70	1720.29
556.90	1675.24
557.10	1732.58
557.30	1722.34
557.50	1607.66
557.70	1662.95
557.91	1634.28
558.11	1681.38
558.31	1830.88
558.51	1734.63
558.71	1652.71
558.91	1691.62
559.11	1560.55
559.31	1576.94
559.51	1626.09
559.72	1818.60
559.92	1660.90
560.12	1587.18
560.32	1730.53
560.52	1740.77
560.72	1638.38
560.92	1667.05
561.12	1802.21
561.32	1656.81
561.52	1656.81
561.72	1828.84
561.93	1718.25
562.13	1658.85
562.33	1673.19
562.53	1675.24
562.73	1701.86
562.93	1671.14
563.13	1675.24
563.33	1781.73
563.53	1765.35
563.73	1693.67
563.93	1814.50
564.13	1804.26
564.33	1683.43
564.53	1757.16
564.74	1730.53
564.94	1617.90
565.14	1748.97
565.34	1720.29
565.54	1724.39
565.74	1564.65
565.94	1683.43
566.14	1685.48
566.34	1751.01
566.54	1726.44
566.74	1667.05
566.94	1716.20
567.14	1769.44
567.34	1744.87
567.54	1708.01
567.74	1742.82
567.94	1716.20
568.14	1716.20
568.34	1814.50
568.54	1665.00
568.74	1738.73
568.94	1648.61
569.14	1839.08
569.34	1712.10
569.54	1650.66
569.75	1695.72
569.95	1691.62
570.15	1830.88
570.35	1714.15
570.55	1732.58
570.75	1748.97
570.95	1744.87
571.15	1767.40
571.35	1634.28
571.55	1648.61
571.75	1798.12
571.95	1759.21
572.15	1722.34
572.35	1787.88
572.55	1665.00
572.75	1636.33
572.95	1603.56
573.15	1724.39
573.35	1730.53
573.55	1757.16
573.75	1650.66
573.95	1832.93
574.15	1658.85
574.35	1626.09
574.55	1677.29
574.75	1628.14
574.95	1671.14
575.15	1667.05
575.34	1683.43
575.54	1718.25
575.74	1685.48
575.94	1691.62
576.14	1648.61
576.34	1757.16
576.54	1714.15
576.74	1773.54
576.94	1693.67
577.14	1718.25
577.34	1794.02
577.54	1667.05
577.74	1662.95
577.94	1722.34
578.14	1705.96
578.34	1740.77
578.54	1609.70
578.74	1679.33
578.94	1681.38
579.14	1771.49
579.34	1662.95
579.54	1705.96
579.74	1679.33
579.94	1718.25
580.13	1751.01
580.33	1640.42
580.53	1621.99
580.73	1669.09
580.93	1746.92
581.13	1640.42
581.33	1738.73
581.53	1697.77
581.73	1691.62
581.93	1642.47
582.13	1738.73
582.33	1712.10
582.53	1712.10
582.73	1722.34
582.92	1656.81
583.12	1695.72
583.32	1621.99
583.52	1714.15
583.72	1806.31
583.92	1728.49
584.12	1681.38
584.32	1746.92
584.52	1587.18
584.72	1665.00
584.92	1708.01
585.11	1658.85
585.31	1773.54
585.51	1546.22
585.71	1732.58
585.91	1828.84
586.11	1771.49
586.31	1624.04
586.51	1679.33
586.71	1685.48
586.91	1693.67
587.10	1794.02
587.30	1714.15
587.50	1681.38
587.70	1603.56
587.90	1691.62
588.10	1679.33
588.30	1644.52
588.50	1636.33
588.69	1691.62
588.89	1744.87
589.09	1771.49
589.29	1644.52
589.49	1677.29
589.69	1724.39
589.89	1767.40
590.08	1658.85
590.28	1642.47
590.48	1718.25
590.68	1712.10
590.88	1724.39
591.08	1691.62
591.28	1671.14
591.47	1699.81
591.67	1556.46
591.87	1753.06
592.07	1806.31
592.27	1609.70
592.47	1593.32
592.67	1744.87
592.86	1644.52
593.06	1705.96
593.26	1775.59
593.46	1767.40
593.66	1597.42
593.86	1847.27
594.05	1742.82
594.25	1728.49
594.45	1685.48
594.65	1812.45
594.85	1759.21
595.05	1662.95
595.24	1691.62
595.44	1699.81
595.64	1648.61
595.84	1720.29
596.04	1697.77
596.23	1646.57
596.43	1751.01
596.63	1687.53
596.83	1665.00
597.03	1834.98
597.22	1740.77
597.42	1751.01
597.62	1783.78
597.82	1716.20
598.02	1761.25
598.21	1613.80
598.41	1746.92
598.61	1808.36
598.81	1665.00
599.01	1718.25
599.20	1683.43
599.40	1679.33
599.60	1697.77
599.80	1710.05
600.00	1863.65
600.19	1710.05
600.39	1583.08
600.59	1693.67
600.79	1732.58
600.98	1822.69
601.18	1712.10
601.38	1722.34
601.58	1677.29
601.78	1830.88
601.97	1732.58
602.17	1683.43
602.37	1585.13
602.57	1773.54
602.76	1691.62
602.96	1593.32
603.16	1603.56
603.36	1705.96
603.55	1716.20
603.75	1656.81
603.95	1728.49
604.15	1689.57
604.34	1679.33
604.54	1693.67
604.74	1740.77
604.94	1687.53
605.13	1695.72
605.33	1619.94
605.53	1689.57
605.73	1732.58
605.92	1718.25
606.12	1689.57
606.32	1765.35
606.52	1728.49
606.71	1728.49
606.91	1673.19
607.11	1712.10
607.30	1636.33
607.50	1636.33
607.70	1736.68
607.90	1771.49
608.09	1646.57
608.29	1746.92
608.49	1847.27
608.68	1601.51
608.88	1591.27
609.08	1685.48
609.28	1738.73
609.47	1724.39
609.67	1730.53
609.87	1716.20
610.06	1755.11
610.26	1662.95
610.46	1785.83
610.66	1638.38
610.85	1607.66
611.05	1800.16
611.25	1650.66
611.44	1611.75
611.64	1724.39
611.84	1712.10
612.03	1681.38
612.23	1593.32
612.43	1794.02
612.62	1734.63
612.82	1773.54
613.02	1699.81
613.21	1654.76
613.41	1783.78
613.61	1658.85
613.80	1652.71
614.00	1679.33
614.20	1810.40
614.39	1802.21
614.59	1789.92
614.79	1587.18
614.98	1759.21
615.18	1689.57
615.38	1781.73
615.57	1699.81
615.77	1800.16
615.97	1675.24
616.16	1703.91
616.36	1732.58
616.56	1718.25
616.75	1675.24
616.95	1638.38
617.15	1826.79
617.34	1716.20
617.54	1822.69
617.74	1818.60
617.93	1771.49
618.13	1677.29
618.32	1665.00
618.52	1712.10
618.72	1558.50
618.91	1746.92
619.11	1804.26
619.31	1687.53
619.50	1599.46
619.70	1638.38
619.90	1677.29
620.09	1679.33
620.29	1662.95
620.48	1730.53
620.68	1718.25
620.88	1744.87
621.07	1755.11
621.27	1695.72
621.46	1681.38
621.66	1791.97
621.86	1656.81
622.05	1699.81
622.25	1822.69
622.44	1701.86
622.64	1642.47
622.84	1697.77
623.03	1574.89
623.23	1722.34
623.42	1759.21
623.62	1800.16
623.82	1732.58
624.01	1738.73
624.21	1662.95
624.40	1779.68
624.60	1648.61
624.80	1730.53
624.99	1773.54
625.19	1742.82
625.38	1708.01
625.58	1724.39
625.77	1716.20
625.97	1685.48
626.17	1718.25
626.36	1708.01
626.56	1724.39
626.75	1679.33
626.95	1777.64
627.14	1695.72
627.34	1693.67
627.54	1773.54
627.73	1826.79
627.93	1722.34
628.12	1796.07
628.32	1708.01
628.51	1665.00
628.71	1746.92
628.90	1761.25
629.10	1662.95
629.30	1576.94
629.49	1685.48
629.69	1662.95
629.88	1691.62
630.08	1816.55
630.27	1857.51
630.47	1755.11
630.66	1703.91
630.86	1699.81
631.05	1660.90
631.25	1740.77
631.44	1724.39
631.64	1673.19
631.84	1714.15
632.03	1740.77
632.23	1613.80
632.42	1671.14
632.62	1648.61
632.81	1701.86
633.01	1662.95
633.20	1802.21
633.40	1810.40
633.59	1662.95
633.79	1705.96
633.98	1773.54
634.18	1769.44
634.37	1871.84
634.57	1703.91
634.76	1705.96
634.96	1759.21
635.15	1884.13
635.35	1718.25
635.54	1660.90
635.74	1675.24
635.93	1583.08
636.13	1611.75
636.32	1777.64
636.52	1757.16
636.71	1699.81
636.91	1710.05
637.10	1753.06
637.30	1667.05
637.49	1738.73
637.69	1671.14
637.88	1736.68
638.08	1681.38
638.27	1744.87
638.46	1681.38
638.66	1720.29
638.85	1658.85
639.05	1701.86
639.24	1773.54
639.44	1626.09
639.63	1746.92
639.83	1703.91
640.02	1656.81
640.22	1791.97
640.41	1638.38
640.61	1734.63
640.80	1757.16
640.99	1712.10
641.19	1775.59
641.38	1765.35
641.58	1679.33
641.77	1720.29
641.97	1607.66
642.16	1693.67
642.36	1765.35
642.55	1701.86
642.74	1736.68
642.94	1689.57
643.13	1685.48
643.33	1730.53
643.52	1748.97
643.72	1781.73
643.91	1679.33
644.10	1763.30
644.30	1667.05
644.49	1665.00
644.69	1732.58
644.88	1617.90
645.08	1728.49
645.27	1742.82
645.46	1703.91
645.66	1693.67
645.85	1658.85
646.05	1720.29
646.24	1626.09
646.43	1814.50
646.63	1728.49
646.82	1658.85
647.02	1703.91
647.21	1853.41
647.40	1699.81
647.60	1671.14
647.79	1730.53
647.99	1681.38
648.18	1675.24
648.37	1718.25
648.57	1675.24
648.76	1609.70
648.96	1640.42
649.15	1699.81
649.34	1769.44
649.54	1718.25
649.73	1742.82
649.92	1712.10
650.12	1748.97
650.31	1679.33
650.51	1861.60
650.70	1673.19
650.89	1652.71
651.09	1789.92
651.28	1761.25
651.47	1656.81
651.67	1777.64
651.86	1744.87
652.06	1667.05
652.25	1763.30
652.44	1617.90
652.64	1611.75
652.83	1736.68
653.02	1683.43
653.22	1808.36
653.41	1634.28
653.60	1658.85
653.80	1607.66
653.99	1767.40
654.18	1613.80
654.38	1605.61
654.57	1716.20
654.76	1720.29
654.96	1648.61
655.15	1626.09
655.34	1714.15
655.54	1621.99
655.73	1693.67
655.92	1632.23
656.12	1734.63
656.31	1789.92
656.50	1806.31
656.70	1726.44
656.89	1646.57
657.08	1658.85
657.28	1691.62
657.47	1667.05
657.66	1650.66
657.86	1613.80
658.05	1771.49
658.24	1736.68
658.43	1767.40
658.63	1585.13
658.82	1777.64
659.01	1726.44
659.21	1820.64
659.40	1613.80
659.59	1722.34
659.79	1644.52
659.98	1808.36
660.17	1753.06
660.36	1669.09
660.56	1732.58
660.75	1744.87
660.94	1665.00
661.14	1650.66
661.33	1640.42
661.52	1705.96
661.71	1773.54
661.91	1691.62
662.10	1714.15
662.29	1624.04
662.49	1708.01
662.68	1650.66
662.87	1644.52
663.06	1812.45
663.26	1732.58
663.45	1873.89
663.64	1687.53
663.83	1687.53
664.03	1837.03
664.22	1728.49
664.41	1794.02
664.60	1804.26
664.80	1560.55
664.99	1763.30
665.18	1732.58
665.37	1662.95
665.57	1787.88
665.76	1761.25
665.95	1732.58
666.14	1640.42
666.34	1671.14
666.53	1757.16
666.72	1644.52
666.91	1722.34
667.11	1648.61
667.30	1886.18
667.49	1722.34
667.68	1820.64
667.87	1748.97
668.07	1738.73
668.26	1562.60
668.45	1632.23
668.64	1626.09
668.84	1810.40
669.03	1710.05
669.22	1744.87
669.41	1816.55
669.60	1687.53
669.80	1779.68
669.99	1695.72
670.18	1683.43
670.37	1787.88
670.57	1718.25
670.76	1775.59
670.95	1779.68
671.14	1675.24
671.33	1669.09
671.53	1757.16
671.72	1759.21
671.91	1771.49
672.10	1679.33
672.29	1609.70
672.48	1656.81
672.68	1621.99
672.87	1652.71
673.06	1705.96
673.25	1589.22
673.44	1638.38
673.64	1654.76
673.83	1685.48
674.02	1753.06
674.21	1744.87
674.40	1728.49
674.59	1624.04
674.79	1683.43
674.98	1773.54
675.17	1830.88
675.36	1652.71
675.55	1662.95
675.74	1652.71
675.94	1785.83
676.13	1710.05
676.32	1695.72
676.51	1730.53
676.70	1585.13
676.89	1738.73
677.08	1691.62
677.28	1869.80
677.47	1705.96
677.66	1720.29
677.85	1660.90
678.04	1751.01
678.23	1773.54
678.42	1658.85
678.62	1677.29
678.81	1726.44
679.00	1718.25
679.19	1830.88
679.38	1744.87
679.57	1634.28
679.76	1675.24
679.96	1640.42
680.15	1716.20
680.34	1626.09
680.53	1765.35
680.72	1697.77
680.91	1597.42
681.10	1757.16
681.29	1695.72
681.48	1781.73
681.68	1753.06
681.87	1865.70
682.06	1705.96
682.25	1712.10
682.44	1591.27
682.63	1736.68
682.82	1587.18
683.01	1757.16
683.20	1757.16
683.39	1765.35
683.59	1712.10
683.78	1624.04
683.97	1689.57
684.16	1576.94
684.35	1609.70
684.54	1761.25
684.73	1660.90
684.92	1568.74
685.11	1781.73
685.30	1740.77
685.49	1705.96
685.69	1748.97
685.88	1689.57
686.07	1687.53
686.26	1671.14
686.45	1689.57
686.64	1705.96
686.83	1656.81
687.02	1740.77
687.21	1775.59
687.40	1613.80
687.59	1888.23
687.78	1705.96
687.97	1726.44
688.16	1755.11
688.35	1646.57
688.54	1693.67
688.74	1529.83
688.93	1757.16
689.12	1685.48
689.31	1789.92
689.50	1705.96
689.69	1636.33
689.88	1679.33
690.07	1722.34
690.26	1652.71
690.45	1634.28
690.64	1626.09
690.83	1617.90
691.02	1638.38
691.21	1744.87
691.40	1613.80
691.59	1679.33
691.78	1699.81
691.97	1615.85
692.16	1720.29
692.35	1662.95
692.54	1812.45
692.73	1683.43
692.92	1779.68
693.11	1689.57
693.30	1728.49
693.49	1708.01
693.68	1699.81
693.87	1810.40
694.06	1693.67
694.25	1617.90
694.44	1705.96
694.63	1683.43
694.82	1652.71
695.01	1771.49
695.20	1708.01
695.39	1636.33
695.58	1654.76
695.77	1607.66
695.96	1654.76
696.15	1708.01
696.34	1689.57
696.53	1730.53
696.72	1656.81
696.91	1660.90
697.10	1593.32
697.29	1617.90
697.48	1861.60
697.67	1691.62
697.86	1599.46
698.05	1685.48
698.24	1730.53
698.43	1679.33
698.62	1781.73
698.81	1740.77
699.00	1691.62
699.19	1826.79
699.38	1771.49
699.57	1617.90
699.76	1761.25
699.95	1673.19
700.14	1728.49
700.32	1683.43
700.51	1685.48
700.70	1712.10
700.89	1675.24
701.08	1855.46
701.27	1699.81
701.46	1720.29
701.65	1716.20
701.84	1630.18
702.03	1695.72
702.22	1740.77
702.41	1779.68
702.60	1705.96
702.79	1734.63
702.98	1708.01
703.17	1751.01
703.35	1705.96
703.54	1658.85
703.73	1710.05
703.92	1609.70
704.11	1689.57
704.30	1685.48
704.49	1740.77
704.68	1724.39
704.87	1703.91
705.06	1804.26
705.25	1626.09
705.43	1726.44
705.62	1683.43
705.81	1732.58
706.00	1708.01
706.19	1695.72
706.38	1630.18
706.57	1800.16
706.76	1658.85
706.95	1669.09
707.14	1794.02
707.32	1654.76
707.51	1646.57
707.70	1697.77
707.89	1732.58
708.08	1771.49
708.27	1708.01
708.46	1708.01
708.65	1650.66
708.84	1683.43
709.02	1699.81
709.21	1642.47
709.40	1783.78
709.59	1734.63
709.78	1619.94
709.97	1597.42
710.16	1695.72
710.34	1728.49
710.53	1818.60
710.72	1660.90
710.91	1652.71
711.10	1650.66
711.29	1710.05
711.48	1806.31
711.66	1669.09
711.85	1705.96
712.04	1740.77
712.23	1583.08
712.42	1757.16
712.61	1822.69
712.80	1716.20
712.98	1726.44
713.17	1691.62
713.36	1732.58
713.55	1847.27
713.74	1755.11
713.93	1720.29
714.11	1662.95
714.30	1599.46
714.49	1722.34
714.68	1658.85
714.87	1621.99
715.06	1820.64
715.24	1775.59
715.43	1763.30
715.62	1650.66
715.81	1675.24
716.00	1679.33
716.18	1644.52
716.37	1755.11
716.56	1667.05
716.75	1724.39
716.94	1699.81
717.12	1705.96
717.31	1691.62
717.50	1683.43
717.69	1646.57
717.88	1718.25
718.06	1654.76
718.25	1748.97
718.44	1677.29
718.63	1787.88
718.82	1583.08
719.00	1773.54
719.19	1761.25
719.38	1660.90
719.57	1738.73
719.76	1720.29
719.94	1738.73
720.13	1763.30
720.32	1818.60
720.51	1615.85
720.69	1656.81
720.88	1779.68
721.07	1689.57
721.26	1804.26
721.44	1658.85
721.63	1746.92
721.82	1658.85
722.01	1658.85
722.20	1662.95
722.38	1624.04
722.57	1613.80
722.76	1689.57
722.95	1593.32
723.13	1689.57
723.32	1759.21
723.51	1681.38
723.70	1738.73
723.88	1742.82
724.07	1634.28
724.26	1765.35
724.44	1665.00
724.63	1806.31
724.82	1630.18
725.01	1658.85
725.19	1722.34
725.38	1748.97
725.57	1607.66
725.76	1798.12
725.94	1624.04
726.13	1638.38
726.32	1671.14
726.51	1640.42
726.69	1613.80
726.88	1699.81
727.07	1759.21
727.25	1689.57
727.44	1732.58
727.63	1642.47
727.82	1624.04
728.00	1712.10
728.19	1677.29
728.38	1689.57
728.56	1605.61
728.75	1751.01
728.94	1728.49
729.12	1744.87
729.31	1720.29
729.50	1718.25
729.69	1701.86
729.87	1671.14
730.06	1691.62
730.25	1689.57
730.43	1646.57
730.62	1644.52
730.81	1652.71
730.99	1689.57
731.18	1732.58
731.37	1679.33
731.55	1650.66
731.74	1777.64
731.93	1636.33
732.11	1632.23
732.30	1634.28
732.49	1630.18
732.67	1640.42
732.86	1685.48
733.05	1572.84
733.23	1748.97
733.42	1605.61
733.61	1652.71
733.79	1777.64
733.98	1765.35
734.17	1626.09
734.35	1732.58
734.54	1787.88
734.73	1699.81
734.91	1648.61
735.10	1703.91
735.29	1779.68
735.47	1634.28
735.66	1687.53
735.84	1773.54
736.03	1685.48
736.22	1714.15
736.40	1665.00
736.59	1603.56
736.78	1626.09
736.96	1697.77
737.15	1757.16
737.33	1685.48
737.52	1689.57
737.71	1617.90
737.89	1609.70
738.08	1640.42
738.27	1677.29
738.45	1796.07
738.64	1638.38
738.82	1679.33
739.01	1693.67
739.20	1732.58
739.38	1734.63
739.57	1757.16
739.75	1667.05
739.94	1732.58
740.13	1595.37
740.31	1771.49
740.50	1794.02
740.68	1667.05
740.87	1687.53
741.06	1736.68
741.24	1777.64
741.43	1671.14
741.61	1644.52
741.80	1632.23
741.99	1654.76
742.17	1796.07
742.36	1626.09
742.54	1712.10
742.73	1775.59
742.91	1632.23
743.10	1705.96
743.29	1720.29
743.47	1716.20
743.66	1593.32
743.84	1679.33
744.03	1748.97
744.21	1724.39
744.40	1687.53
744.59	1734.63
744.77	1593.32
744.96	1656.81
745.14	1630.18
745.33	1736.68
745.51	1687.53
745.70	1669.09
745.88	1699.81
746.07	1720.29
746.26	1644.52
746.44	1578.98
746.63	1574.89
746.81	1796.07
747.00	1755.11
747.18	1691.62
747.37	1634.28
747.55	1742.82
747.74	1961.95
747.92	1681.38
748.11	1740.77
748.29	1705.96
748.48	1708.01
748.66	1667.05
748.85	1681.38
749.03	1681.38
749.22	1583.08
749.41	1716.20
749.59	1773.54
749.78	1705.96
749.96	1599.46
750.15	1660.90
750.33	1662.95
750.52	1624.04
750.70	1703.91
750.89	1695.72
751.07	1712.10
751.26	1730.53
751.44	1703.91
751.63	1708.01
751.81	1624.04
752.00	1554.41
752.18	1677.29
752.37	1730.53
752.55	1677.29
752.74	1617.90
752.92	1701.86
753.10	1683.43
753.29	1626.09
753.47	1644.52
753.66	1578.98
753.84	1646.57
754.03	1603.56
754.21	1648.61
754.40	1673.19
754.58	1740.77
754.77	1697.77
754.95	1687.53
755.14	1693.67
755.32	1667.05
755.51	1591.27
755.69	1677.29
755.88	1650.66
756.06	1683.43
756.24	1648.61
756.43	1759.21
756.61	1736.68
756.80	1638.38
756.98	1646.57
757.17	1691.62
757.35	1712.10
757.54	1695.72
757.72	1658.85
757.90	1658.85
758.09	1581.03
758.27	1601.51
758.46	1611.75
758.64	1742.82
758.83	1685.48
759.01	1683.43
759.19	1771.49
759.38	1699.81
759.56	1720.29
759.75	1662.95
759.93	1708.01
760.12	1718.25
760.30	1732.58
760.48	1652.71
760.67	1738.73
760.85	1638.38
761.04	1693.67
761.22	1695.72
761.40	1710.05
761.59	1687.53
761.77	1642.47
761.96	1658.85
762.14	1648.61
762.32	1720.29
762.51	1658.85
762.69	1591.27
762.88	1748.97
763.06	1638.38
763.24	1667.05
763.43	1593.32
763.61	1673.19
763.80	1683.43
763.98	1736.68
764.16	1671.14
764.35	1615.85
764.53	1624.04
764.72	1650.66
764.90	1697.77
765.08	1759.21
765.27	1738.73
765.45	1642.47
765.63	1613.80
765.82	1691.62
766.00	1621.99
766.18	1669.09
766.37	1738.73
766.55	1628.14
766.74	1708.01
766.92	1589.22
767.10	1617.90
767.29	1734.63
767.47	1705.96
767.65	1683.43
767.84	1744.87
768.02	1765.35
768.20	1634.28
768.39	1665.00
768.57	1630.18
768.75	1542.12
768.94	1691.62
769.12	1628.14
769.30	1679.33
769.49	1667.05
769.67	1646.57
769.85	1746.92
770.04	1636.33
770.22	1708.01
770.40	1730.53
770.59	1685.48
770.77	1785.83
770.95	1757.16
771.14	1685.48
771.32	1624.04
771.50	1593.32
771.69	1617.90
771.87	1617.90
772.05	1667.05
772.24	1650.66
772.42	1744.87
772.60	1671.14
772.78	1693.67
772.97	1585.13
773.15	1677.29
773.33	1730.53
773.52	1601.51
773.70	1751.01
773.88	1714.15
774.07	1650.66
774.25	1665.00
774.43	1755.11
774.61	1675.24
774.80	1691.62
774.98	1683.43
775.16	1679.33
775.34	1740.77
775.53	1732.58
775.71	1718.25
775.89	1736.68
776.08	1589.22
776.26	1652.71
776.44	1572.84
776.62	1607.66
776.81	1679.33
776.99	1767.40
777.17	1712.10
777.35	1701.86
777.54	1740.77
777.72	1726.44
777.90	1576.94
778.08	1581.03
778.27	1675.24
778.45	1583.08
778.63	1658.85
778.81	1681.38
779.00	1777.64
779.18	1685.48
779.36	1714.15
779.54	1714.15
779.73	1751.01
779.91	1628.14
780.09	1617.90
780.27	1650.66
780.46	1718.25
780.64	1529.83
780.82	1708.01
781.00	1607.66
781.19	1583.08
781.37	1615.85
781.55	1757.16
781.73	1718.25
781.91	1626.09
782.10	1748.97
782.28	1667.05
782.46	1665.00
782.64	1675.24
782.82	1697.77
783.01	1665.00
783.19	1697.77
783.37	1767.40
783.55	1642.47
783.74	1669.09
783.92	1648.61
784.10	1681.38
784.28	1705.96
784.46	1722.34
784.64	1605.61
784.83	1701.86
785.01	1828.84
785.19	1730.53
785.37	1691.62
785.55	1683.43
785.74	1732.58
785.92	1687.53
786.10	1648.61
786.28	1728.49
786.46	1753.06
786.64	1568.74
786.83	1656.81
787.01	1701.86
787.19	1753.06
787.37	1748.97
787.55	1638.38
787.74	1609.70
787.92	1662.95
788.10	1693.67
788.28	1673.19
788.46	1681.38
788.64	1703.91
788.82	1681.38
789.01	1662.95
789.19	1720.29
789.37	1730.53
789.55	1687.53
789.73	1607.66
789.91	1646.57
790.09	1621.99
790.28	1636.33
790.46	1613.80
790.64	1683.43
790.82	1669.09
791.00	1683.43
791.18	1685.48
791.36	1703.91
791.55	1652.71
791.73	1581.03
791.91	1697.77
792.09	1658.85
792.27	1646.57
792.45	1662.95
792.63	1716.20
792.81	1693.67
793.00	1673.19
793.18	1679.33
793.36	1705.96
793.54	1732.58
793.72	1689.57
793.90	1636.33
794.08	1568.74
794.26	1720.29
794.44	1599.46
794.62	1613.80
794.81	1599.46
794.99	1699.81
795.17	1771.49
795.35	1669.09
795.53	1658.85
795.71	1732.58
795.89	1589.22
796.07	1621.99
796.25	1628.14
796.43	1775.59
796.61	1734.63
796.80	1624.04
796.98	1763.30
797.16	1705.96
797.34	1677.29
797.52	1632.23
797.70	1732.58
797.88	1748.97
798.06	1675.24
798.24	1705.96
798.42	1693.67
798.60	1744.87
798.78	1673.19
798.96	1734.63
799.14	1656.81
799.32	1708.01
799.51	1617.90
799.69	1757.16
799.87	1720.29
800.05	1660.90
800.23	1665.00
800.41	1716.20
800.59	1658.85
800.77	1650.66
800.95	1572.84
801.13	1716.20
801.31	1683.43
801.49	1716.20
801.67	1665.00
801.85	1660.90
802.03	1591.27
802.21	1681.38
802.39	1585.13
802.57	1646.57
802.75	1765.35
802.93	1687.53
803.11	1570.79
803.29	1720.29
803.47	1748.97
803.65	1652.71
803.83	1632.23
804.01	1703.91
804.19	1574.89
804.37	1628.14
804.55	1646.57
804.73	1708.01
804.91	1671.14
805.09	1701.86
805.27	1724.39
805.45	1615.85
805.63	1646.57
805.81	1685.48
805.99	1671.14
806.17	1615.85
806.35	1595.37
806.53	1642.47
806.71	1777.64
806.89	1675.24
807.07	1658.85
807.25	1652.71
807.43	1687.53
807.61	1763.30
807.79	1685.48
807.97	1656.81
808.15	1665.00
808.33	1748.97
808.51	1738.73
808.69	1669.09
808.87	1621.99
809.05	1554.41
809.23	1667.05
809.41	1576.94
809.59	1607.66
809.77	1744.87
809.95	1705.96
810.13	1748.97
810.31	1634.28
810.49	1734.63
810.67	1662.95
810.84	1787.88
811.02	1640.42
811.20	1662.95
811.38	1763.30
811.56	1546.22
811.74	1687.53
811.92	1681.38
812.10	1689.57
812.28	1689.57
812.46	1718.25
812.64	1611.75
812.82	1591.27
813.00	1769.44
813.18	1611.75
813.36	1669.09
813.53	1630.18
813.71	1705.96
813.89	1673.19
814.07	1642.47
814.25	1714.15
814.43	1613.80
814.61	1626.09
814.79	1634.28
814.97	1693.67
815.15	1685.48
815.33	1607.66
815.50	1658.85
815.68	1646.57
815.86	1648.61
816.04	1757.16
816.22	1667.05
816.40	1689.57
816.58	1626.09
816.76	1626.09
816.94	1667.05
817.11	1697.77
817.29	1656.81
817.47	1626.09
817.65	1662.95
817.83	1654.76
818.01	1619.94
818.19	1683.43
818.37	1589.22
818.54	1730.53
818.72	1724.39
818.90	1720.29
819.08	1665.00
819.26	1716.20
819.44	1785.83
819.62	1634.28
819.80	1599.46
819.97	1765.35
820.15	1648.61
820.33	1621.99
820.51	1658.85
820.69	1617.90
820.87	1669.09
821.05	1638.38
821.22	1519.59
821.40	1722.34
821.58	1685.48
821.76	1656.81
821.94	1644.52
822.12	1742.82
822.29	1705.96
822.47	1658.85
822.65	1650.66
822.83	1550.31
823.01	1720.29
823.19	1597.42
823.36	1695.72
823.54	1628.14
823.72	1679.33
823.90	1728.49
824.08	1535.98
824.25	1644.52
824.43	1730.53
824.61	1619.94
824.79	1712.10
824.97	1519.59
825.15	1765.35
825.32	1601.51
825.50	1701.86
825.68	1626.09
825.86	1685.48
826.04	1679.33
826.21	1777.64
826.39	1605.61
826.57	1656.81
826.75	1662.95
826.93	1708.01
827.10	1654.76
827.28	1581.03
827.46	1705.96
827.64	1650.66
827.81	1654.76
827.99	1632.23
828.17	1617.90
828.35	1648.61
828.53	1662.95
828.70	1689.57
828.88	1654.76
829.06	1632.23
829.24	1673.19
829.41	1642.47
829.59	1738.73
829.77	1597.42
829.95	1640.42
830.12	1570.79
830.30	1619.94
830.48	1599.46
830.66	1617.90
830.84	1652.71
831.01	1685.48
831.19	1583.08
831.37	1732.58
831.55	1613.80
831.72	1699.81
831.90	1773.54
832.08	1648.61
832.25	1677.29
832.43	1728.49
832.61	1736.68
832.79	1621.99
832.96	1720.29
833.14	1714.15
833.32	1757.16
833.50	1621.99
833.67	1689.57
833.85	1556.46
834.03	1603.56
834.20	1636.33
834.38	1771.49
834.56	1687.53
834.74	1632.23
834.91	1642.47
835.09	1705.96
835.27	1648.61
835.44	1617.90
835.62	1583.08
835.80	1636.33
835.98	1607.66
836.15	1746.92
836.33	1652.71
836.51	1562.60
836.68	1589.22
836.86	1650.66
837.04	1705.96
837.21	1818.60
837.39	1699.81
837.57	1720.29
837.75	1691.62
837.92	1615.85
838.10	1628.14
838.28	1595.37
838.45	1640.42
838.63	1617.90
838.81	1718.25
838.98	1679.33
839.16	1578.98
839.34	1619.94
839.51	1617.90
839.69	1630.18
839.87	1699.81
840.04	1673.19
840.22	1908.71
840.40	1654.76
840.57	1611.75
840.75	1609.70
840.93	1628.14
841.10	1667.05
841.28	1673.19
841.46	1677.29
841.63	1619.94
841.81	1585.13
841.98	1535.98
842.16	1837.03
842.34	1710.05
842.51	1511.40
842.69	1613.80
842.87	1603.56
843.04	1687.53
843.22	1613.80
843.40	1554.41
843.57	1628.14
843.75	1595.37
843.92	1638.38
844.10	1738.73
844.28	1624.04
844.45	1621.99
844.63	1665.00
844.81	1642.47
844.98	1759.21
845.16	1742.82
845.33	1671.14
845.51	1652.71
845.69	1667.05
845.86	1761.25
846.04	1619.94
846.21	1646.57
846.39	1601.51
846.57	1585.13
846.74	1632.23
846.92	1738.73
847.09	1617.90
847.27	1634.28
847.45	1687.53
847.62	1728.49
847.80	1738.73
847.97	1624.04
848.15	1617.90
848.32	1628.14
848.50	1626.09
848.68	1609.70
848.85	1660.90
849.03	1552.36
849.20	1601.51
849.38	1609.70
849.56	1687.53
849.73	1605.61
849.91	1619.94
850.08	1636.33
850.26	1599.46
850.43	1583.08
850.61	1710.05
850.78	1546.22
850.96	1691.62
851.14	1599.46
851.31	1820.64
851.49	1726.44
851.66	1654.76
851.84	1574.89
852.01	1705.96
852.19	1630.18
852.36	1626.09
852.54	1665.00
852.71	1646.57
852.89	1652.71
853.07	1619.94
853.24	1720.29
853.42	1628.14
853.59	1650.66
853.77	1593.32
853.94	1628.14
854.12	1705.96
854.29	1535.98
854.47	1648.61
854.64	1671.14
854.82	1746.92
854.99	1687.53
855.17	1548.26
855.34	1601.51
855.52	1667.05
855.69	1781.73
855.87	1679.33
856.04	1619.94
856.22	1634.28
856.39	1601.51
856.57	1652.71
856.74	1578.98
856.92	1734.63
857.09	1566.70
857.27	1621.99
857.44	1638.38
857.62	1705.96
857.79	1609.70
857.97	1671.14
858.14	1607.66
858.32	1630.18
858.49	1667.05
858.67	1609.70
858.84	1671.14
859.02	1697.77
859.19	1654.76
859.37	1587.18
859.54	1583.08
859.72	1626.09
859.89	1585.13
860.06	1531.88
860.24	1560.55
860.41	1740.77
860.59	1585.13
860.76	1617.90
860.94	1658.85
861.11	1609.70
861.29	1714.15
861.46	1581.03
861.64	1658.85
861.81	1734.63
861.98	1587.18
862.16	1568.74
862.33	1578.98
862.51	1624.04
862.68	1601.51
862.86	1560.55
863.03	1560.55
863.21	1693.67
863.38	1591.27
863.55	1624.04
863.73	1716.20
863.90	1634.28
864.08	1605.61
864.25	1568.74
864.43	1646.57
864.60	1628.14
864.77	1732.58
864.95	1679.33
865.12	1626.09
865.30	1714.15
865.47	1712.10
865.64	1705.96
865.82	1685.48
865.99	1705.96
866.17	1712.10
866.34	1665.00
866.51	1581.03
866.69	1544.17
866.86	1757.16
867.04	1765.35
867.21	1654.76
867.38	1609.70
867.56	1628.14
867.73	1632.23
867.91	1662.95
868.08	1578.98
868.25	1593.32
868.43	1673.19
868.60	1683.43
868.78	1609.70
868.95	1689.57
869.12	1683.43
869.30	1538.02
869.47	1726.44
869.64	1619.94
869.82	1632.23
869.99	1675.24
870.16	1695.72
870.34	1675.24
870.51	1775.59
870.69	1585.13
870.86	1669.09
871.03	1724.39
871.21	1617.90
871.38	1730.53
871.55	1671.14
871.73	1652.71
871.90	1630.18
872.07	1644.52
872.25	1568.74
872.42	1630.18
872.59	1542.12
872.77	1714.15
872.94	1587.18
873.11	1642.47
873.29	1732.58
873.46	1591.27
873.63	1644.52
873.81	1515.50
873.98	1658.85
874.15	1595.37
874.33	1628.14
874.50	1660.90
874.67	1693.67
874.85	1570.79
875.02	1619.94
875.19	1628.14
875.37	1683.43
875.54	1564.65
875.71	1656.81
875.88	1648.61
876.06	1683.43
876.23	1638.38
876.40	1665.00
876.58	1638.38
876.75	1667.05
876.92	1605.61
877.10	1683.43
877.27	1640.42
877.44	1613.80
877.61	1658.85
877.79	1691.62
877.96	1650.66
878.13	1722.34
878.31	1550.31
878.48	1656.81
878.65	1650.66
878.82	1601.51
879.00	1650.66
879.17	1660.90
879.34	1624.04
879.51	1558.50
879.69	1634.28
879.86	1517.54
880.03	1597.42
880.21	1644.52
880.38	1587.18
880.55	1685.48
880.72	1736.68
880.90	1658.85
881.07	1665.00
881.24	1728.49
881.41	1630.18
881.59	1636.33
881.76	1714.15
881.93	1662.95
882.10	1589.22
882.28	1640.42
882.45	1679.33
882.62	1640.42
882.79	1720.29
882.96	1591.27
883.14	1628.14
883.31	1716.20
883.48	1624.04
883.65	1665.00
883.83	1603.56
884.00	1671.14
884.17	1626.09
884.34	1751.01
884.51	1665.00
884.69	1640.42
884.86	1632.23
885.03	1660.90
885.20	1517.54
885.38	1796.07
885.55	1667.05
885.72	1667.05
885.89	1572.84
886.06	1699.81
886.24	1621.99
886.41	1628.14
886.58	1679.33
886.75	1677.29
886.92	1624.04
887.10	1560.55
887.27	1632.23
887.44	1728.49
887.61	1773.54
887.78	1675.24
887.95	1740.77
888.13	1646.57
888.30	1562.60
888.47	1660.90
888.64	1615.85
888.81	1765.35
888.99	1564.65
889.16	1699.81
889.33	1591.27
889.50	1691.62
889.67	1695.72
889.84	1624.04
890.01	1675.24
890.19	1703.91
890.36	1665.00
890.53	1621.99
890.70	1648.61
890.87	1665.00
891.04	1662.95
891.22	1736.68
891.39	1619.94
891.56	1722.34
891.73	1658.85
891.90	1640.42
892.07	1581.03
892.24	1738.73
892.42	1593.32
892.59	1593.32
892.76	1716.20
892.93	1552.36
893.10	1609.70
893.27	1685.48
893.44	1533.93
893.61	1691.62
893.79	1650.66
893.96	1599.46
894.13	1636.33
894.30	1583.08
894.47	1722.34
894.64	1722.34
894.81	1636.33
894.98	1687.53
895.15	1716.20
895.33	1626.09
895.50	1603.56
895.67	1529.83
895.84	1599.46
896.01	1607.66
896.18	1548.26
896.35	1740.77
896.52	1648.61
896.69	1570.79
896.86	1679.33
897.04	1767.40
897.21	1693.67
897.38	1691.62
897.55	1591.27
897.72	1642.47
897.89	1654.76
898.06	1677.29
898.23	1574.89
898.40	1687.53
898.57	1677.29
898.74	1624.04
898.91	1665.00
899.08	1624.04
899.26	1611.75
899.43	1744.87
899.60	1687.53
899.77	1636.33
899.94	1535.98
900.11	1736.68
900.28	1607.66
900.45	1630.18
900.62	1646.57
900.79	1695.72
900.96	1621.99
901.13	1662.95
901.30	1615.85
901.47	1527.78
901.64	1583.08
901.81	1673.19
901.98	1599.46
902.15	1665.00
902.32	1587.18
902.49	1605.61
902.66	1621.99
902.83	1671.14
903.01	1634.28
903.18	1650.66
903.35	1626.09
903.52	1654.76
903.69	1718.25
903.86	1648.61
904.03	1589.22
904.20	1687.53
904.37	1619.94
904.54	1601.51
904.71	1732.58
904.88	1740.77
905.05	1568.74
905.22	1667.05
905.39	1574.89
905.56	1583.08
905.73	1538.02
905.90	1660.90
906.07	1654.76
906.24	1753.06
906.41	1609.70
906.58	1662.95
906.75	1558.50
906.92	1554.41
907.09	1591.27
907.26	1667.05
907.43	1548.26
907.60	1630.18
907.77	1714.15
907.93	1665.00
908.10	1597.42
908.27	1734.63
908.44	1648.61
908.61	1529.83
908.78	1589.22
908.95	1777.64
909.12	1613.80
909.29	1597.42
909.46	1654.76
909.63	1660.90
909.80	1615.85
909.97	1667.05
910.14	1642.47
910.31	1619.94
910.48	1552.36
910.65	1665.00
910.82	1568.74
910.99	1656.81
911.16	1607.66
911.33	1689.57
911.50	1585.13
911.66	1617.90
911.83	1646.57
912.00	1642.47
912.17	1646.57
912.34	1566.70
912.51	1665.00
912.68	1587.18
912.85	1699.81
913.02	1763.30
913.19	1638.38
913.36	1697.77
913.53	1724.39
913.70	1626.09
913.86	1718.25
914.03	1626.09
914.20	1648.61
914.37	1544.17
914.54	1652.71
914.71	1708.01
914.88	1658.85
915.05	1589.22
915.22	1665.00
915.39	1656.81
915.55	1673.19
915.72	1556.46
915.89	1632.23
916.06	1656.81
916.23	1591.27
916.40	1650.66
916.57	1566.70
916.74	1718.25
916.91	1660.90
917.07	1578.98
917.24	1544.17
917.41	1615.85
917.58	1583.08
917.75	1634.28
917.92	1531.88
918.09	1585.13
918.26	1617.90
918.42	1621.99
918.59	1642.47
918.76	1581.03
918.93	1611.75
919.10	1585.13
919.27	1597.42
919.44	1761.25
919.60	1703.91
919.77	1603.56
919.94	1634.28
920.11	1581.03
920.28	1738.73
920.45	1601.51
920.61	1556.46
920.78	1634.28
920.95	1716.20
921.12	1671.14
921.29	1593.32
921.46	1613.80
921.62	1556.46
921.79	1621.99
921.96	1601.51
922.13	1638.38
922.30	1599.46
922.47	1583.08
922.63	1603.56
922.80	1724.39
922.97	1650.66
923.14	1568.74
923.31	1667.05
923.47	1669.09
923.64	1761.25
923.81	1609.70
923.98	1699.81
924.15	1607.66
924.32	1703.91
924.48	1740.77
924.65	1746.92
924.82	1617.90
924.99	1630.18
925.15	1513.45
925.32	1812.45
925.49	1621.99
925.66	1667.05
925.83	1605.61
925.99	1619.94
926.16	1699.81
926.33	1648.61
926.50	1554.41
926.67	1652.71
926.83	1660.90
927.00	1695.72
927.17	1611.75
927.34	1640.42
927.50	1708.01
927.67	1832.93
927.84	1638.38
928.01	1656.81
928.17	1626.09
928.34	1581.03
928.51	1638.38
928.68	1665.00
928.84	1544.17
929.01	1626.09
929.18	1591.27
929.35	1654.76
929.51	1667.05
929.68	1568.74
929.85	1685.48
930.02	1658.85
930.18	1693.67
930.35	1626.09
930.52	1665.00
930.69	1597.42
930.85	1679.33
931.02	1570.79
931.19	1695.72
931.36	1650.66
931.52	1603.56
931.69	1673.19
931.86	1697.77
932.02	1609.70
932.19	1630.18
932.36	1703.91
932.53	1632.23
932.69	1652.71
932.86	1728.49
933.03	1695.72
933.19	1550.31
933.36	1621.99
933.53	1708.01
933.70	1619.94
933.86	1630.18
934.03	1660.90
934.20	1644.52
934.36	1732.58
934.53	1671.14
934.70	1585.13
934.86	1591.27
935.03	1581.03
935.20	1593.32
935.36	1699.81
935.53	1550.31
935.70	1665.00
935.86	1681.38
936.03	1529.83
936.20	1597.42
936.36	1601.51
936.53	1662.95
936.70	1624.04
936.86	1740.77
937.03	1638.38
937.20	1562.60
937.36	1728.49
937.53	1499.11
937.70	1521.64
937.86	1574.89
938.03	1669.09
938.20	1724.39
938.36	1607.66
938.53	1640.42
938.70	1572.84
938.86	1667.05
939.03	1679.33
939.20	1542.12
939.36	1603.56
939.53	1724.39
939.70	1814.50
939.86	1578.98
940.03	1630.18
940.19	1624.04
940.36	1671.14
940.53	1679.33
940.69	1591.27
940.86	1662.95
941.03	1636.33
941.19	1613.80
941.36	1611.75
941.52	1720.29
941.69	1656.81
941.86	1611.75
942.02	1646.57
942.19	1708.01
942.35	1753.06
942.52	1689.57
942.69	1687.53
942.85	1589.22
943.02	1667.05
943.18	1636.33
943.35	1667.05
943.52	1619.94
943.68	1585.13
943.85	1720.29
944.01	1626.09
944.18	1640.42
944.35	1628.14
944.51	1632.23
944.68	1570.79
944.84	1654.76
945.01	1613.80
945.17	1689.57
945.34	1628.14
945.51	1675.24
945.67	1712.10
945.84	1689.57
946.00	1562.60
946.17	1634.28
946.33	1597.42
946.50	1658.85
946.67	1640.42
946.83	1560.55
947.00	1644.52
947.16	1568.74
947.33	1683.43
947.49	1581.03
947.66	1562.60
947.82	1681.38
947.99	1529.83
948.16	1722.34
948.32	1621.99
948.49	1650.66
948.65	1724.39
948.82	1669.09
948.98	1613.80
949.15	1535.98
949.31	1632.23
949.48	1593.32
949.64	1587.18
949.81	1601.51
949.97	1599.46
950.14	1685.48
950.30	1599.46
950.47	1609.70
950.63	1675.24
950.80	1679.33
950.96	1687.53
951.13	1605.61
951.30	1642.47
951.46	1619.94
951.63	1638.38
951.79	1640.42
951.96	1716.20
952.12	1636.33
952.29	1642.47
952.45	1619.94
952.62	1650.66
952.78	1671.14
952.94	1605.61
953.11	1519.59
953.27	1492.97
953.44	1798.12
953.60	1662.95
953.77	1615.85
953.93	1617.90
954.10	1660.90
954.26	1673.19
954.43	1597.42
954.59	1732.58
954.76	1787.88
954.92	1576.94
955.09	1650.66
955.25	1583.08
955.42	1642.47
955.58	1740.77
955.75	1638.38
955.91	1593.32
956.07	1556.46
956.24	1597.42
956.40	1652.71
956.57	1697.77
956.73	1535.98
956.90	1593.32
957.06	1621.99
957.23	1613.80
957.39	1654.76
957.56	1632.23
957.72	1548.26
957.88	1511.40
958.05	1626.09
958.21	1697.77
958.38	1624.04
958.54	1601.51
958.71	1691.62
958.87	1566.70
959.03	1535.98
959.20	1630.18
959.36	1593.32
959.53	1671.14
959.69	1609.70
959.85	1640.42
960.02	1533.93
960.18	1681.38
960.35	1626.09
960.51	1658.85
960.68	1554.41
960.84	1642.47
961.00	1556.46
961.17	1593.32
961.33	1603.56
961.50	1630.18
961.66	1650.66
961.82	1581.03
961.99	1609.70
962.15	1599.46
962.31	1531.88
962.48	1705.96
962.64	1689.57
962.81	1587.18
962.97	1613.80
963.13	1716.20
963.30	1630.18
963.46	1605.61
963.62	1576.94
963.79	1601.51
963.95	1621.99
964.12	1531.88
964.28	1687.53
964.44	1603.56
964.61	1691.62
964.77	1626.09
964.93	1742.82
965.10	1699.81
965.26	1542.12
965.42	1542.12
965.59	1619.94
965.75	1677.29
965.92	1699.81
966.08	1632.23
966.24	1658.85
966.41	1533.93
966.57	1615.85
966.73	1685.48
966.90	1660.90
967.06	1542.12
967.22	1587.18
967.39	1548.26
967.55	1658.85
967.71	1720.29
967.88	1636.33
968.04	1654.76
968.20	1597.42
968.37	1542.12
968.53	1599.46
968.69	1669.09
968.85	1632.23
969.02	1566.70
969.18	1746.92
969.34	1619.94
969.51	1652.71
969.67	1642.47
969.83	1628.14
970.00	1812.45
970.16	1644.52
970.32	1617.90
970.48	1730.53
970.65	1634.28
970.81	1576.94
970.97	1630.18
971.14	1490.92
971.30	1716.20
971.46	1593.32
971.63	1642.47
971.79	1716.20
971.95	1599.46
972.11	1654.76
972.28	1617.90
972.44	1679.33
972.60	1597.42
972.76	1613.80
972.93	1578.98
973.09	1703.91
973.25	1693.67
973.42	1548.26
973.58	1673.19
973.74	1646.57
973.90	1714.15
974.07	1609.70
974.23	1601.51
974.39	1628.14
974.55	1552.36
974.72	1646.57
974.88	1601.51
975.04	1638.38
975.20	1624.04
975.37	1583.08
975.53	1712.10
975.69	1626.09
975.85	1599.46
976.01	1609.70
976.18	1650.66
976.34	1665.00
976.50	1677.29
976.66	1755.11
976.83	1621.99
976.99	1638.38
977.15	1660.90
977.31	1519.59
977.47	1601.51
977.64	1593.32
977.80	1564.65
977.96	1597.42
978.12	1642.47
978.29	1626.09
978.45	1550.31
978.61	1597.42
978.77	1650.66
978.93	1523.69
979.10	1626.09
979.26	1589.22
979.42	1615.85
979.58	1507.30
979.74	1642.47
979.91	1583.08
980.07	1564.65
980.23	1712.10
980.39	1570.79
980.55	1652.71
980.71	1542.12
980.88	1445.87
981.04	1632.23
981.20	1636.33
981.36	1636.33
981.52	1624.04
981.68	1546.22
981.85	1681.38
982.01	1576.94
982.17	1591.27
982.33	1654.76
982.49	1691.62
982.65	1548.26
982.82	1607.66
982.98	1630.18
983.14	1527.78
983.30	1732.58
983.46	1642.47
983.62	1656.81
983.79	1550.31
983.95	1566.70
984.11	1454.06
984.27	1626.09
984.43	1624.04
984.59	1556.46
984.75	1654.76
984.91	1546.22
985.08	1669.09
985.24	1675.24
985.40	1521.64
985.56	1591.27
985.72	1593.32
985.88	1658.85
986.04	1626.09
986.20	1566.70
986.37	1626.09
986.53	1576.94
986.69	1667.05
986.85	1576.94
987.01	1591.27
987.17	1636.33
987.33	1597.42
987.49	1597.42
987.65	1695.72
987.82	1634.28
987.98	1499.11
988.14	1583.08
988.30	1611.75
988.46	1583.08
988.62	1665.00
988.78	1716.20
988.94	1654.76
989.10	1630.18
989.26	1535.98
989.42	1662.95
989.59	1568.74
989.75	1609.70
989.91	1695.72
990.07	1523.69
990.23	1660.90
990.39	1644.52
990.55	1640.42
990.71	1562.60
990.87	1587.18
991.03	1609.70
991.19	1597.42
991.35	1615.85
991.51	1652.71
991.67	1656.81
991.83	1595.37
992.00	1615.85
992.16	1685.48
992.32	1591.27
992.48	1724.39
992.64	1566.70
992.80	1662.95
992.96	1617.90
993.12	1597.42
993.28	1662.95
993.44	1646.57
993.60	1591.27
993.76	1640.42
993.92	1601.51
994.08	1667.05
994.24	1714.15
994.40	1650.66
994.56	1605.61
994.72	1546.22
994.88	1632.23
995.04	1613.80
995.20	1585.13
995.36	1544.17
995.52	1626.09
995.68	1613.80
995.84	1578.98
996.00	1769.44
996.16	1648.61
996.32	1560.55
996.48	1630.18
996.64	1591.27
996.80	1568.74
996.96	1644.52
997.12	1552.36
997.28	1597.42
997.44	1585.13
997.60	1607.66
997.76	1640.42
997.92	1624.04
998.08	1681.38
998.24	1554.41
998.40	1609.70
998.56	1648.61
998.72	1550.31
998.88	1669.09
999.04	1609.70
999.20	1646.57
999.36	1636.33
999.52	1722.34
999.68	1501.16
999.84	1665.00
1000.00	1681.38
1000.16	1671.14
1000.32	1540.07
1000.48	1634.28
1000.64	1572.84
1000.80	1619.94
1000.95	1544.17
1001.11	1669.09
1001.27	1507.30
1001.43	1593.32
1001.59	1519.59
1001.75	1597.42
1001.91	1630.18
1002.07	1576.94
1002.23	1591.27
1002.39	1593.32
1002.55	1611.75
1002.71	1597.42
1002.87	1535.98
1003.03	1560.55
1003.19	1591.27
1003.34	1617.90
1003.50	1599.46
1003.66	1646.57
1003.82	1662.95
1003.98	1599.46
1004.14	1673.19
1004.30	1585.13
1004.46	1562.60
1004.62	1570.79
1004.78	1583.08
1004.94	1665.00
1005.09	1691.62
1005.25	1644.52
1005.41	1681.38
1005.57	1679.33
1005.73	1564.65
1005.89	1621.99
1006.05	1675.24
1006.21	1675.24
1006.37	1591.27
1006.52	1517.54
1006.68	1558.50
1006.84	1730.53
1007.00	1564.65
1007.16	1593.32
1007.32	1654.76
1007.48	1597.42
1007.64	1597.42
1007.79	1566.70
1007.95	1574.89
1008.11	1718.25
1008.27	1574.89
1008.43	1597.42
1008.59	1583.08
1008.75	1658.85
1008.91	1671.14
1009.06	1564.65
1009.22	1634.28
1009.38	1613.80
1009.54	1660.90
1009.70	1605.61
1009.86	1708.01
1010.01	1710.05
1010.17	1617.90
1010.33	1650.66
1010.49	1607.66
1010.65	1671.14
1010.81	1503.21
1010.96	1685.48
1011.12	1564.65
1011.28	1574.89
1011.44	1611.75
1011.60	1624.04
1011.76	1556.46
1011.91	1742.82
1012.07	1554.41
1012.23	1558.50
1012.39	1540.07
1012.55	1658.85
1012.71	1574.89
1012.86	1667.05
1013.02	1650.66
1013.18	1574.89
1013.34	1632.23
1013.50	1658.85
1013.65	1621.99
1013.81	1521.64
1013.97	1540.07
1014.13	1613.80
1014.29	1658.85
1014.44	1710.05
1014.60	1650.66
1014.76	1593.32
1014.92	1544.17
1015.07	1644.52
1015.23	1619.94
1015.39	1630.18
1015.55	1626.09
1015.71	1599.46
1015.86	1558.50
1016.02	1535.98
1016.18	1630.18
1016.34	1632.23
1016.49	1607.66
1016.65	1640.42
1016.81	1636.33
1016.97	1562.60
1017.12	1634.28
1017.28	1509.35
1017.44	1648.61
1017.60	1576.94
1017.75	1630.18
1017.91	1642.47
1018.07	1652.71
1018.23	1607.66
1018.38	1617.90
1018.54	1593.32
1018.70	1591.27
1018.86	1546.22
1019.01	1589.22
1019.17	1538.02
1019.33	1691.62
1019.49	1665.00
1019.64	1599.46
1019.80	1601.51
1019.96	1681.38
1020.12	1615.85
1020.27	1560.55
1020.43	1601.51
1020.59	1574.89
1020.74	1660.90
1020.90	1611.75
1021.06	1642.47
1021.22	1626.09
1021.37	1660.90
1021.53	1550.31
1021.69	1611.75
1021.84	1570.79
1022.00	1552.36
1022.16	1689.57
1022.31	1591.27
1022.47	1615.85
1022.63	1667.05
1022.79	1568.74
1022.94	1572.84
1023.10	1683.43
1023.26	1613.80
1023.41	1617.90
1023.57	1597.42
1023.73	1677.29
1023.88	1617.90
1024.04	1576.94
1024.20	1552.36
1024.35	1634.28
1024.51	1681.38
1024.67	1621.99
1024.82	1712.10
1024.98	1695.72
1025.14	1648.61
1025.29	1572.84
1025.45	1626.09
1025.61	1624.04
1025.76	1531.88
1025.92	1591.27
1026.08	1687.53
1026.23	1660.90
1026.39	1695.72
1026.55	1712.10
1026.70	1564.65
1026.86	1572.84
1027.02	1626.09
1027.17	1587.18
1027.33	1646.57
1027.48	1630.18
1027.64	1587.18
1027.80	1564.65
1027.95	1677.29
1028.11	1533.93
1028.27	1650.66
1028.42	1615.85
1028.58	1593.32
1028.73	1581.03
1028.89	1613.80
1029.05	1708.01
1029.20	1679.33
>>>>>End Processed Spectral Data<<<<<
