SpectraSuite Data File
++++++++++++++++++++++++++++++++++++
Date: Fri Jun 02 14:53:27 CEST 2017
User: INFO_000
Dark Spectrum Present: No
Reference Spectrum Present: No
Number of Sampled Component Spectra: 1
Spectrometers: USB4H00879
Integration Time (usec): 80000 (USB4H00879)
Spectra Averaged: 1 (USB4H00879)
Boxcar Smoothing: 0 (USB4H00879)
Correct for Electrical Dark: No (USB4H00879)
Strobe/Lamp Enabled: No (USB4H00879)
Correct for Detector Non-linearity: No (USB4H00879)
Correct for Stray Light: No (USB4H00879)
Number of Pixels in Processed Spectrum: 3648
>>>>>Begin Processed Spectral Data<<<<<
345.13	1300.46
345.34	1300.46
345.56	1300.46
345.78	1224.69
345.99	1271.79
346.21	1724.39
346.42	1648.61
346.64	1650.66
346.86	1753.06
347.07	1683.43
347.29	1763.30
347.50	1570.79
347.72	1603.56
347.94	1761.25
348.15	1697.77
348.37	1615.85
348.59	1613.80
348.80	1691.62
349.02	1722.34
349.23	1767.40
349.45	1660.90
349.67	1738.73
349.88	1662.95
350.10	1865.70
350.31	1763.30
350.53	1701.86
350.75	1818.60
350.96	1652.71
351.18	1740.77
351.39	1761.25
351.61	1632.23
351.82	1753.06
352.04	1722.34
352.26	1685.48
352.47	1689.57
352.69	1781.73
352.90	1593.32
353.12	1755.11
353.34	1748.97
353.55	1798.12
353.77	1703.91
353.98	1677.29
354.20	1748.97
354.41	1712.10
354.63	1722.34
354.85	1896.42
355.06	1722.34
355.28	1673.19
355.49	1693.67
355.71	1759.21
355.92	1759.21
356.14	1796.07
356.35	1761.25
356.57	1724.39
356.79	1773.54
357.00	1699.81
357.22	1757.16
357.43	1617.90
357.65	1763.30
357.86	1679.33
358.08	1798.12
358.29	1671.14
358.51	1679.33
358.72	1759.21
358.94	1759.21
359.16	1740.77
359.37	1761.25
359.59	1689.57
359.80	1804.26
360.02	1703.91
360.23	1742.82
360.45	1759.21
360.66	1656.81
360.88	1662.95
361.09	1679.33
361.31	1810.40
361.52	1675.24
361.74	1832.93
361.95	1746.92
362.17	1675.24
362.38	1849.32
362.60	1794.02
362.81	1765.35
363.03	1658.85
363.24	1687.53
363.46	1789.92
363.67	1759.21
363.89	1765.35
364.10	1626.09
364.32	1734.63
364.53	1748.97
364.75	1624.04
364.96	1751.01
365.18	1722.34
365.39	1687.53
365.61	1585.13
365.82	1740.77
366.04	1691.62
366.25	1642.47
366.47	1736.68
366.68	1730.53
366.90	1632.23
367.11	1751.01
367.33	1816.55
367.54	1716.20
367.76	1648.61
367.97	1816.55
368.19	1716.20
368.40	1753.06
368.62	1626.09
368.83	1646.57
369.05	1738.73
369.26	1613.80
369.48	1562.60
369.69	1679.33
369.91	1775.59
370.12	1705.96
370.33	1718.25
370.55	1665.00
370.76	1732.58
370.98	1724.39
371.19	1771.49
371.41	1712.10
371.62	1648.61
371.84	1687.53
372.05	1814.50
372.27	1771.49
372.48	1714.15
372.69	1720.29
372.91	1732.58
373.12	1734.63
373.34	1703.91
373.55	1753.06
373.77	1746.92
373.98	1652.71
374.20	1710.05
374.41	1789.92
374.62	1679.33
374.84	1632.23
375.05	1775.59
375.27	1732.58
375.48	1724.39
375.70	1753.06
375.91	1675.24
376.12	1859.56
376.34	1658.85
376.55	1699.81
376.77	1705.96
376.98	1687.53
377.19	1617.90
377.41	1581.03
377.62	1730.53
377.84	1740.77
378.05	1814.50
378.27	1722.34
378.48	1837.03
378.69	1828.84
378.91	1755.11
379.12	1714.15
379.34	1712.10
379.55	1716.20
379.76	1787.88
379.98	1642.47
380.19	1773.54
380.41	1687.53
380.62	1753.06
380.83	1744.87
381.05	1632.23
381.26	1787.88
381.47	1648.61
381.69	1769.44
381.90	1832.93
382.12	1724.39
382.33	1765.35
382.54	1728.49
382.76	1716.20
382.97	1619.94
383.19	1662.95
383.40	1705.96
383.61	1648.61
383.83	1624.04
384.04	1708.01
384.25	1763.30
384.47	1757.16
384.68	1730.53
384.89	1630.18
385.11	1648.61
385.32	1716.20
385.54	1667.05
385.75	1720.29
385.96	1748.97
386.18	1744.87
386.39	1667.05
386.60	1632.23
386.82	1699.81
387.03	1708.01
387.24	1726.44
387.46	1701.86
387.67	1689.57
387.88	1695.72
388.10	1603.56
388.31	1617.90
388.52	1822.69
388.74	1718.25
388.95	1648.61
389.16	1777.64
389.38	1630.18
389.59	1800.16
389.80	1820.64
390.02	1722.34
390.23	1806.31
390.44	1673.19
390.66	1665.00
390.87	1566.70
391.08	1685.48
391.30	1755.11
391.51	1742.82
391.72	1728.49
391.94	1781.73
392.15	1677.29
392.36	1671.14
392.58	1681.38
392.79	1734.63
393.00	1798.12
393.22	1794.02
393.43	1755.11
393.64	1730.53
393.85	1814.50
394.07	1667.05
394.28	1732.58
394.49	1765.35
394.71	1716.20
394.92	1777.64
395.13	1619.94
395.35	1626.09
395.56	1695.72
395.77	1654.76
395.98	1667.05
396.20	1658.85
396.41	1744.87
396.62	1767.40
396.84	1658.85
397.05	1693.67
397.26	1681.38
397.47	1761.25
397.69	1732.58
397.90	1830.88
398.11	1736.68
398.32	1654.76
398.54	1681.38
398.75	1701.86
398.96	1691.62
399.18	1839.08
399.39	1714.15
399.60	1753.06
399.81	1705.96
400.03	1605.61
400.24	1920.99
400.45	1646.57
400.66	1779.68
400.88	1693.67
401.09	1867.75
401.30	1691.62
401.51	1826.79
401.73	1822.69
401.94	1740.77
402.15	1732.58
402.36	1683.43
402.58	1685.48
402.79	1755.11
403.00	1638.38
403.21	1738.73
403.43	1796.07
403.64	1734.63
403.85	1673.19
404.06	1734.63
404.27	1574.89
404.49	1646.57
404.70	1646.57
404.91	1785.83
405.12	1638.38
405.34	1738.73
405.55	1806.31
405.76	1626.09
405.97	1681.38
406.19	1708.01
406.40	1632.23
406.61	1726.44
406.82	1691.62
407.03	1724.39
407.25	1648.61
407.46	1728.49
407.67	1779.68
407.88	1771.49
408.09	1748.97
408.31	1613.80
408.52	1669.09
408.73	1718.25
408.94	1636.33
409.15	1691.62
409.37	1720.29
409.58	1834.98
409.79	1685.48
410.00	1806.31
410.21	1652.71
410.43	1693.67
410.64	1646.57
410.85	1806.31
411.06	1738.73
411.27	1693.67
411.48	1773.54
411.70	1712.10
411.91	1695.72
412.12	1753.06
412.33	1804.26
412.54	1683.43
412.76	1785.83
412.97	1832.93
413.18	1660.90
413.39	1740.77
413.60	1781.73
413.81	1714.15
414.03	1660.90
414.24	1699.81
414.45	1937.38
414.66	1634.28
414.87	1701.86
415.08	1652.71
415.30	1699.81
415.51	1718.25
415.72	1705.96
415.93	1695.72
416.14	1730.53
416.35	1722.34
416.56	1775.59
416.78	1796.07
416.99	1662.95
417.20	1740.77
417.41	1675.24
417.62	1722.34
417.83	1716.20
418.04	1714.15
418.26	1757.16
418.47	1789.92
418.68	1759.21
418.89	1818.60
419.10	1841.12
419.31	1816.55
419.52	1714.15
419.73	1820.64
419.95	1769.44
420.16	1671.14
420.37	1656.81
420.58	1773.54
420.79	1642.47
421.00	1757.16
421.21	1650.66
421.42	1697.77
421.63	1699.81
421.85	1654.76
422.06	1687.53
422.27	1705.96
422.48	1748.97
422.69	1689.57
422.90	1646.57
423.11	1640.42
423.32	1785.83
423.53	1794.02
423.75	1677.29
423.96	1658.85
424.17	1736.68
424.38	1757.16
424.59	1755.11
424.80	1691.62
425.01	1757.16
425.22	1619.94
425.43	1730.53
425.64	1765.35
425.85	1789.92
426.06	1679.33
426.28	1617.90
426.49	1669.09
426.70	1581.03
426.91	1673.19
427.12	1681.38
427.33	1679.33
427.54	1675.24
427.75	1689.57
427.96	1746.92
428.17	1802.21
428.38	1658.85
428.59	1728.49
428.80	1662.95
429.01	1662.95
429.23	1701.86
429.44	1591.27
429.65	1757.16
429.86	1736.68
430.07	1738.73
430.28	1652.71
430.49	1746.92
430.70	1740.77
430.91	1767.40
431.12	1576.94
431.33	1728.49
431.54	1777.64
431.75	1718.25
431.96	1759.21
432.17	1765.35
432.38	1740.77
432.59	1791.97
432.80	1834.98
433.01	1695.72
433.22	1732.58
433.43	1695.72
433.64	1708.01
433.85	1787.88
434.06	1656.81
434.27	1632.23
434.49	1628.14
434.70	1738.73
434.91	1665.00
435.12	1712.10
435.33	1683.43
435.54	1720.29
435.75	1642.47
435.96	1705.96
436.17	1689.57
436.38	1783.78
436.59	1687.53
436.80	1626.09
437.01	1771.49
437.22	1759.21
437.43	1687.53
437.64	1564.65
437.85	1718.25
438.06	1794.02
438.27	1671.14
438.48	1716.20
438.69	1839.08
438.90	1675.24
439.11	1699.81
439.32	1843.17
439.53	1615.85
439.74	1648.61
439.95	1697.77
440.16	1677.29
440.37	1724.39
440.57	1638.38
440.78	1685.48
440.99	1728.49
441.20	1714.15
441.41	1603.56
441.62	1595.37
441.83	1621.99
442.04	1667.05
442.25	1675.24
442.46	1628.14
442.67	1669.09
442.88	1796.07
443.09	1638.38
443.30	1669.09
443.51	1621.99
443.72	1695.72
443.93	1658.85
444.14	1763.30
444.35	1679.33
444.56	1667.05
444.77	1585.13
444.98	1718.25
445.19	1730.53
445.40	1689.57
445.61	1607.66
445.81	1613.80
446.02	1701.86
446.23	1765.35
446.44	1615.85
446.65	1761.25
446.86	1714.15
447.07	1851.36
447.28	1683.43
447.49	1734.63
447.70	1705.96
447.91	1785.83
448.12	1660.90
448.33	1671.14
448.54	1683.43
448.74	1642.47
448.95	1722.34
449.16	1714.15
449.37	1740.77
449.58	1769.44
449.79	1777.64
450.00	1677.29
450.21	1738.73
450.42	1656.81
450.63	1736.68
450.84	1636.33
451.05	1769.44
451.25	1730.53
451.46	1638.38
451.67	1794.02
451.88	1632.23
452.09	1697.77
452.30	1716.20
452.51	1662.95
452.72	1763.30
452.93	1781.73
453.13	1687.53
453.34	1656.81
453.55	1765.35
453.76	1763.30
453.97	1687.53
454.18	1630.18
454.39	1650.66
454.60	1673.19
454.81	1718.25
455.01	1699.81
455.22	1650.66
455.43	1677.29
455.64	1732.58
455.85	1689.57
456.06	1728.49
456.27	1800.16
456.48	1724.39
456.68	1699.81
456.89	1748.97
457.10	1669.09
457.31	1722.34
457.52	1740.77
457.73	1687.53
457.94	1699.81
458.14	1605.61
458.35	1689.57
458.56	1763.30
458.77	1683.43
458.98	1634.28
459.19	1755.11
459.39	1734.63
459.60	1662.95
459.81	1624.04
460.02	1675.24
460.23	1695.72
460.44	1662.95
460.65	1718.25
460.85	1632.23
461.06	1679.33
461.27	1642.47
461.48	1730.53
461.69	1636.33
461.89	1558.50
462.10	1726.44
462.31	1617.90
462.52	1593.32
462.73	1671.14
462.94	1744.87
463.14	1675.24
463.35	1687.53
463.56	1753.06
463.77	1759.21
463.98	1695.72
464.18	1652.71
464.39	1740.77
464.60	1693.67
464.81	1619.94
465.02	1720.29
465.23	1665.00
465.43	1703.91
465.64	1630.18
465.85	1644.52
466.06	1660.90
466.27	1705.96
466.47	1681.38
466.68	1763.30
466.89	1581.03
467.10	1576.94
467.30	1687.53
467.51	1683.43
467.72	1722.34
467.93	1576.94
468.14	1654.76
468.34	1691.62
468.55	1642.47
468.76	1845.22
468.97	1660.90
469.17	1744.87
469.38	1736.68
469.59	1746.92
469.80	1718.25
470.01	1646.57
470.21	1708.01
470.42	1652.71
470.63	1742.82
470.84	1863.65
471.04	1724.39
471.25	1843.17
471.46	1708.01
471.67	1816.55
471.87	1650.66
472.08	1699.81
472.29	1624.04
472.50	1693.67
472.70	1689.57
472.91	1624.04
473.12	1628.14
473.33	1671.14
473.53	1724.39
473.74	1605.61
473.95	1687.53
474.16	1646.57
474.36	1646.57
474.57	1718.25
474.78	1611.75
474.99	1834.98
475.19	1734.63
475.40	1724.39
475.61	1839.08
475.81	1724.39
476.02	1660.90
476.23	1732.58
476.44	1718.25
476.64	1603.56
476.85	1617.90
477.06	1652.71
477.27	1673.19
477.47	1689.57
477.68	1650.66
477.89	1705.96
478.09	1699.81
478.30	1689.57
478.51	1695.72
478.71	1642.47
478.92	1722.34
479.13	1759.21
479.34	1544.17
479.54	1679.33
479.75	1728.49
479.96	1691.62
480.16	1751.01
480.37	1718.25
480.58	1675.24
480.78	1742.82
480.99	1593.32
481.20	1730.53
481.41	1740.77
481.61	1724.39
481.82	1824.74
482.03	1716.20
482.23	1605.61
482.44	1794.02
482.65	1787.88
482.85	1791.97
483.06	1720.29
483.27	1779.68
483.47	1802.21
483.68	1687.53
483.89	1732.58
484.09	1714.15
484.30	1724.39
484.51	1775.59
484.71	1695.72
484.92	1652.71
485.13	1777.64
485.33	1599.46
485.54	1695.72
485.75	1744.87
485.95	1708.01
486.16	1628.14
486.37	1705.96
486.57	1691.62
486.78	1679.33
486.98	1683.43
487.19	1673.19
487.40	1753.06
487.60	1703.91
487.81	1695.72
488.02	1638.38
488.22	1712.10
488.43	1808.36
488.64	1685.48
488.84	1581.03
489.05	1673.19
489.25	1685.48
489.46	1703.91
489.67	1681.38
489.87	1693.67
490.08	1691.62
490.29	1585.13
490.49	1767.40
490.70	1748.97
490.90	1703.91
491.11	1699.81
491.32	1693.67
491.52	1693.67
491.73	1648.61
491.94	1650.66
492.14	1607.66
492.35	1695.72
492.55	1736.68
492.76	1667.05
492.97	1650.66
493.17	1798.12
493.38	1714.15
493.58	1804.26
493.79	1691.62
494.00	1703.91
494.20	1634.28
494.41	1705.96
494.61	1761.25
494.82	1708.01
495.02	1660.90
495.23	1736.68
495.44	1789.92
495.64	1775.59
495.85	1648.61
496.05	1744.87
496.26	1716.20
496.47	1705.96
496.67	1646.57
496.88	1757.16
497.08	1724.39
497.29	1732.58
497.49	1810.40
497.70	1757.16
497.91	1677.29
498.11	1748.97
498.32	1738.73
498.52	1730.53
498.73	1761.25
498.93	1767.40
499.14	1767.40
499.34	1800.16
499.55	1738.73
499.76	1552.36
499.96	1722.34
500.17	1732.58
500.37	1699.81
500.58	1724.39
500.78	1699.81
500.99	1611.75
501.19	1669.09
501.40	1773.54
501.60	1609.70
501.81	1701.86
502.02	1703.91
502.22	1650.66
502.43	1691.62
502.63	1863.65
502.84	1710.05
503.04	1699.81
503.25	1679.33
503.45	1736.68
503.66	1685.48
503.86	1697.77
504.07	1798.12
504.27	1652.71
504.48	1712.10
504.68	1687.53
504.89	1822.69
505.09	1617.90
505.30	1689.57
505.50	1775.59
505.71	1671.14
505.91	1748.97
506.12	1701.86
506.32	1699.81
506.53	1597.42
506.73	1644.52
506.94	1689.57
507.14	1695.72
507.35	1746.92
507.55	1755.11
507.76	1710.05
507.96	1699.81
508.17	1732.58
508.37	1669.09
508.58	1724.39
508.78	1742.82
508.99	1714.15
509.19	1691.62
509.40	1718.25
509.60	1708.01
509.81	1843.17
510.01	1650.66
510.22	1601.51
510.42	1714.15
510.63	1761.25
510.83	1714.15
511.04	1673.19
511.24	1808.36
511.44	1691.62
511.65	1744.87
511.85	1730.53
512.06	1701.86
512.26	1658.85
512.47	1738.73
512.67	1642.47
512.88	1748.97
513.08	1597.42
513.29	1736.68
513.49	1646.57
513.69	1638.38
513.90	1761.25
514.10	1716.20
514.31	1720.29
514.51	1685.48
514.72	1617.90
514.92	1699.81
515.13	1652.71
515.33	1638.38
515.53	1708.01
515.74	1734.63
515.94	1695.72
516.15	1755.11
516.35	1587.18
516.56	1570.79
516.76	1665.00
516.96	1652.71
517.17	1644.52
517.37	1710.05
517.58	1613.80
517.78	1695.72
517.99	1759.21
518.19	1820.64
518.39	1740.77
518.60	1744.87
518.80	1699.81
519.01	1726.44
519.21	1722.34
519.41	1746.92
519.62	1632.23
519.82	1708.01
520.03	1687.53
520.23	1607.66
520.43	1597.42
520.64	1796.07
520.84	1761.25
521.05	1656.81
521.25	1683.43
521.45	1751.01
521.66	1830.88
521.86	1761.25
522.07	1611.75
522.27	1761.25
522.47	1638.38
522.68	1693.67
522.88	1681.38
523.08	1753.06
523.29	1589.22
523.49	1687.53
523.70	1708.01
523.90	1650.66
524.10	1728.49
524.31	1650.66
524.51	1589.22
524.71	1748.97
524.92	1753.06
525.12	1646.57
525.33	1732.58
525.53	1703.91
525.73	1757.16
525.94	1632.23
526.14	1669.09
526.34	1585.13
526.55	1675.24
526.75	1757.16
526.95	1771.49
527.16	1667.05
527.36	1673.19
527.56	1689.57
527.77	1675.24
527.97	1773.54
528.17	1763.30
528.38	1701.86
528.58	1763.30
528.78	1660.90
528.99	1728.49
529.19	1699.81
529.39	1650.66
529.60	1695.72
529.80	1632.23
530.00	1644.52
530.21	1771.49
530.41	1685.48
530.61	1779.68
530.82	1751.01
531.02	1726.44
531.22	1761.25
531.43	1810.40
531.63	1638.38
531.83	1669.09
532.04	1722.34
532.24	1740.77
532.44	1609.70
532.64	1802.21
532.85	1617.90
533.05	1726.44
533.25	1675.24
533.46	1669.09
533.66	1732.58
533.86	1685.48
534.07	1726.44
534.27	1644.52
534.47	1777.64
534.67	1683.43
534.88	1669.09
535.08	1765.35
535.28	1769.44
535.49	1656.81
535.69	1837.03
535.89	1681.38
536.09	1818.60
536.30	1746.92
536.50	1671.14
536.70	1736.68
536.91	1728.49
537.11	1705.96
537.31	1722.34
537.51	1611.75
537.72	1744.87
537.92	1699.81
538.12	1763.30
538.32	1755.11
538.53	1732.58
538.73	1681.38
538.93	1755.11
539.13	1716.20
539.34	1816.55
539.54	1636.33
539.74	1705.96
539.94	1652.71
540.15	1777.64
540.35	1755.11
540.55	1679.33
540.75	1626.09
540.96	1712.10
541.16	1669.09
541.36	1726.44
541.56	1724.39
541.77	1802.21
541.97	1705.96
542.17	1562.60
542.37	1777.64
542.58	1712.10
542.78	1804.26
542.98	1708.01
543.18	1708.01
543.38	1708.01
543.59	1732.58
543.79	1675.24
543.99	1656.81
544.19	1699.81
544.40	1705.96
544.60	1624.04
544.80	1703.91
545.00	1638.38
545.20	1816.55
545.41	1789.92
545.61	1576.94
545.81	1650.66
546.01	1757.16
546.21	1697.77
546.42	1720.29
546.62	1785.83
546.82	1609.70
547.02	1683.43
547.22	1697.77
547.43	1781.73
547.63	1650.66
547.83	1687.53
548.03	1703.91
548.23	1826.79
548.44	1814.50
548.64	1667.05
548.84	1665.00
549.04	1617.90
549.24	1810.40
549.45	1970.15
549.65	1599.46
549.85	1705.96
550.05	1701.86
550.25	1495.02
550.45	1738.73
550.66	1675.24
550.86	1640.42
551.06	1624.04
551.26	1599.46
551.46	1656.81
551.66	1665.00
551.87	1740.77
552.07	1681.38
552.27	1724.39
552.47	1818.60
552.67	1646.57
552.87	1667.05
553.07	1681.38
553.28	1716.20
553.48	1646.57
553.68	1626.09
553.88	1658.85
554.08	1652.71
554.28	1710.05
554.48	1665.00
554.69	1667.05
554.89	1669.09
555.09	1615.85
555.29	1613.80
555.49	1705.96
555.69	1646.57
555.89	1751.01
556.10	1677.29
556.30	1617.90
556.50	1703.91
556.70	1730.53
556.90	1726.44
557.10	1742.82
557.30	1710.05
557.50	1662.95
557.70	1720.29
557.91	1681.38
558.11	1683.43
558.31	1757.16
558.51	1781.73
558.71	1693.67
558.91	1671.14
559.11	1617.90
559.31	1626.09
559.51	1679.33
559.72	1783.78
559.92	1628.14
560.12	1609.70
560.32	1732.58
560.52	1763.30
560.72	1734.63
560.92	1738.73
561.12	1714.15
561.32	1732.58
561.52	1595.37
561.72	1918.95
561.93	1728.49
562.13	1560.55
562.33	1681.38
562.53	1708.01
562.73	1669.09
562.93	1765.35
563.13	1798.12
563.33	1757.16
563.53	1730.53
563.73	1746.92
563.93	1847.27
564.13	1763.30
564.33	1634.28
564.53	1671.14
564.74	1708.01
564.94	1669.09
565.14	1710.05
565.34	1761.25
565.54	1730.53
565.74	1658.85
565.94	1740.77
566.14	1687.53
566.34	1714.15
566.54	1705.96
566.74	1710.05
566.94	1701.86
567.14	1748.97
567.34	1742.82
567.54	1748.97
567.74	1683.43
567.94	1736.68
568.14	1626.09
568.34	1746.92
568.54	1705.96
568.74	1652.71
568.94	1738.73
569.14	1740.77
569.34	1697.77
569.54	1656.81
569.75	1626.09
569.95	1732.58
570.15	1701.86
570.35	1695.72
570.55	1646.57
570.75	1755.11
570.95	1765.35
571.15	1732.58
571.35	1710.05
571.55	1652.71
571.75	1726.44
571.95	1720.29
572.15	1660.90
572.35	1699.81
572.55	1632.23
572.75	1697.77
572.95	1634.28
573.15	1734.63
573.35	1744.87
573.55	1773.54
573.75	1665.00
573.95	1855.46
574.15	1699.81
574.35	1632.23
574.55	1714.15
574.75	1677.29
574.95	1677.29
575.15	1628.14
575.34	1748.97
575.54	1665.00
575.74	1665.00
575.94	1744.87
576.14	1697.77
576.34	1710.05
576.54	1730.53
576.74	1822.69
576.94	1499.11
577.14	1738.73
577.34	1857.51
577.54	1675.24
577.74	1644.52
577.94	1652.71
578.14	1652.71
578.34	1724.39
578.54	1644.52
578.74	1695.72
578.94	1714.15
579.14	1718.25
579.34	1630.18
579.54	1828.84
579.74	1683.43
579.94	1699.81
580.13	1738.73
580.33	1656.81
580.53	1677.29
580.73	1687.53
580.93	1728.49
581.13	1646.57
581.33	1767.40
581.53	1683.43
581.73	1703.91
581.93	1681.38
582.13	1843.17
582.33	1734.63
582.53	1646.57
582.73	1695.72
582.92	1671.14
583.12	1746.92
583.32	1613.80
583.52	1683.43
583.72	1806.31
583.92	1816.55
584.12	1712.10
584.32	1746.92
584.52	1597.42
584.72	1667.05
584.92	1705.96
585.11	1744.87
585.31	1742.82
585.51	1642.47
585.71	1732.58
585.91	1800.16
586.11	1697.77
586.31	1726.44
586.51	1720.29
586.71	1751.01
586.91	1626.09
587.10	1736.68
587.30	1744.87
587.50	1716.20
587.70	1662.95
587.90	1675.24
588.10	1654.76
588.30	1648.61
588.50	1755.11
588.69	1685.48
588.89	1726.44
589.09	1806.31
589.29	1634.28
589.49	1642.47
589.69	1665.00
589.89	1716.20
590.08	1683.43
590.28	1675.24
590.48	1755.11
590.68	1710.05
590.88	1695.72
591.08	1728.49
591.28	1636.33
591.47	1708.01
591.67	1531.88
591.87	1732.58
592.07	1771.49
592.27	1589.22
592.47	1650.66
592.67	1755.11
592.86	1722.34
593.06	1705.96
593.26	1687.53
593.46	1712.10
593.66	1574.89
593.86	1832.93
594.05	1748.97
594.25	1708.01
594.45	1679.33
594.65	1773.54
594.85	1712.10
595.05	1730.53
595.24	1667.05
595.44	1615.85
595.64	1718.25
595.84	1697.77
596.04	1718.25
596.23	1726.44
596.43	1730.53
596.63	1722.34
596.83	1697.77
597.03	1785.83
597.22	1714.15
597.42	1626.09
597.62	1744.87
597.82	1806.31
598.02	1755.11
598.21	1687.53
598.41	1617.90
598.61	1691.62
598.81	1642.47
599.01	1689.57
599.20	1687.53
599.40	1646.57
599.60	1691.62
599.80	1656.81
600.00	1804.26
600.19	1673.19
600.39	1617.90
600.59	1691.62
600.79	1748.97
600.98	1675.24
601.18	1755.11
601.38	1763.30
601.58	1687.53
601.78	1738.73
601.97	1839.08
602.17	1699.81
602.37	1673.19
602.57	1673.19
602.76	1683.43
602.96	1609.70
603.16	1607.66
603.36	1765.35
603.55	1728.49
603.75	1722.34
603.95	1761.25
604.15	1757.16
604.34	1716.20
604.54	1648.61
604.74	1755.11
604.94	1734.63
605.13	1613.80
605.33	1662.95
605.53	1646.57
605.73	1703.91
605.92	1662.95
606.12	1728.49
606.32	1748.97
606.52	1734.63
606.71	1632.23
606.91	1746.92
607.11	1677.29
607.30	1773.54
607.50	1644.52
607.70	1773.54
607.90	1699.81
608.09	1656.81
608.29	1757.16
608.49	1712.10
608.68	1630.18
608.88	1667.05
609.08	1681.38
609.28	1697.77
609.47	1669.09
609.67	1767.40
609.87	1759.21
610.06	1732.58
610.26	1775.59
610.46	1843.17
610.66	1650.66
610.85	1630.18
611.05	1677.29
611.25	1724.39
611.44	1693.67
611.64	1679.33
611.84	1634.28
612.03	1691.62
612.23	1650.66
612.43	1814.50
612.62	1744.87
612.82	1744.87
613.02	1744.87
613.21	1736.68
613.41	1742.82
613.61	1626.09
613.80	1689.57
614.00	1699.81
614.20	1757.16
614.39	1828.84
614.59	1736.68
614.79	1654.76
614.98	1789.92
615.18	1691.62
615.38	1691.62
615.57	1638.38
615.77	1847.27
615.97	1656.81
616.16	1728.49
616.36	1732.58
616.56	1794.02
616.75	1693.67
616.95	1564.65
617.15	1781.73
617.34	1671.14
617.54	1763.30
617.74	1814.50
617.93	1863.65
618.13	1658.85
618.32	1654.76
618.52	1697.77
618.72	1583.08
618.91	1718.25
619.11	1798.12
619.31	1738.73
619.50	1626.09
619.70	1638.38
619.90	1716.20
620.09	1671.14
620.29	1667.05
620.48	1791.97
620.68	1755.11
620.88	1746.92
621.07	1834.98
621.27	1708.01
621.46	1712.10
621.66	1761.25
621.86	1640.42
622.05	1681.38
622.25	1824.74
622.44	1675.24
622.64	1691.62
622.84	1740.77
623.03	1554.41
623.23	1634.28
623.42	1695.72
623.62	1748.97
623.82	1765.35
624.01	1689.57
624.21	1693.67
624.40	1871.84
624.60	1740.77
624.80	1662.95
624.99	1673.19
625.19	1656.81
625.38	1746.92
625.58	1705.96
625.77	1734.63
625.97	1699.81
626.17	1699.81
626.36	1640.42
626.56	1744.87
626.75	1642.47
626.95	1722.34
627.14	1771.49
627.34	1609.70
627.54	1654.76
627.73	1761.25
627.93	1789.92
628.12	1654.76
628.32	1757.16
628.51	1667.05
628.71	1812.45
628.90	1708.01
629.10	1703.91
629.30	1667.05
629.49	1732.58
629.69	1757.16
629.88	1687.53
630.08	1781.73
630.27	1804.26
630.47	1710.05
630.66	1646.57
630.86	1679.33
631.05	1632.23
631.25	1654.76
631.44	1769.44
631.64	1697.77
631.84	1617.90
632.03	1761.25
632.23	1621.99
632.42	1662.95
632.62	1601.51
632.81	1581.03
633.01	1695.72
633.20	1843.17
633.40	1818.60
633.59	1705.96
633.79	1685.48
633.98	1781.73
634.18	1812.45
634.37	1734.63
634.57	1667.05
634.76	1609.70
634.96	1761.25
635.15	1753.06
635.35	1679.33
635.54	1712.10
635.74	1669.09
635.93	1599.46
636.13	1705.96
636.32	1736.68
636.52	1693.67
636.71	1648.61
636.91	1703.91
637.10	1738.73
637.30	1751.01
637.49	1697.77
637.69	1679.33
637.88	1740.77
638.08	1671.14
638.27	1665.00
638.46	1667.05
638.66	1691.62
638.85	1671.14
639.05	1669.09
639.24	1757.16
639.44	1763.30
639.63	1789.92
639.83	1767.40
640.02	1701.86
640.22	1753.06
640.41	1667.05
640.61	1757.16
640.80	1685.48
640.99	1757.16
641.19	1804.26
641.38	1783.78
641.58	1732.58
641.77	1634.28
641.97	1595.37
642.16	1677.29
642.36	1712.10
642.55	1736.68
642.74	1732.58
642.94	1675.24
643.13	1665.00
643.33	1736.68
643.52	1656.81
643.72	1785.83
643.91	1658.85
644.10	1726.44
644.30	1742.82
644.49	1703.91
644.69	1742.82
644.88	1667.05
645.08	1794.02
645.27	1708.01
645.46	1624.04
645.66	1746.92
645.85	1787.88
646.05	1736.68
646.24	1710.05
646.43	1679.33
646.63	1857.51
646.82	1746.92
647.02	1708.01
647.21	1798.12
647.40	1695.72
647.60	1673.19
647.79	1773.54
647.99	1642.47
648.18	1675.24
648.37	1746.92
648.57	1679.33
648.76	1677.29
648.96	1648.61
649.15	1714.15
649.34	1753.06
649.54	1705.96
649.73	1671.14
649.92	1724.39
650.12	1722.34
650.31	1722.34
650.51	1877.99
650.70	1746.92
650.89	1685.48
651.09	1728.49
651.28	1671.14
651.47	1681.38
651.67	1658.85
651.86	1804.26
652.06	1607.66
652.25	1767.40
652.44	1632.23
652.64	1794.02
652.83	1634.28
653.02	1712.10
653.22	1767.40
653.41	1619.94
653.60	1644.52
653.80	1708.01
653.99	1708.01
654.18	1650.66
654.38	1669.09
654.57	1732.58
654.76	1607.66
654.96	1708.01
655.15	1691.62
655.34	1748.97
655.54	1597.42
655.73	1667.05
655.92	1621.99
656.12	1722.34
656.31	1744.87
656.50	1751.01
656.70	1712.10
656.89	1710.05
657.08	1626.09
657.28	1740.77
657.47	1693.67
657.66	1681.38
657.86	1617.90
658.05	1755.11
658.24	1742.82
658.43	1845.22
658.63	1667.05
658.82	1740.77
659.01	1736.68
659.21	1779.68
659.40	1703.91
659.59	1748.97
659.79	1697.77
659.98	1773.54
660.17	1724.39
660.36	1757.16
660.56	1746.92
660.75	1718.25
660.94	1712.10
661.14	1736.68
661.33	1689.57
661.52	1665.00
661.71	1834.98
661.91	1685.48
662.10	1703.91
662.29	1691.62
662.49	1634.28
662.68	1673.19
662.87	1691.62
663.06	1757.16
663.26	1705.96
663.45	1861.60
663.64	1634.28
663.83	1728.49
664.03	1781.73
664.22	1814.50
664.41	1853.41
664.60	1761.25
664.80	1585.13
664.99	1681.38
665.18	1777.64
665.37	1626.09
665.57	1757.16
665.76	1683.43
665.95	1740.77
666.14	1681.38
666.34	1675.24
666.53	1705.96
666.72	1740.77
666.91	1665.00
667.11	1708.01
667.30	1847.27
667.49	1642.47
667.68	1755.11
667.87	1720.29
668.07	1744.87
668.26	1650.66
668.45	1671.14
668.64	1730.53
668.84	1755.11
669.03	1679.33
669.22	1810.40
669.41	1775.59
669.60	1667.05
669.80	1812.45
669.99	1699.81
670.18	1748.97
670.37	1775.59
670.57	1691.62
670.76	1759.21
670.95	1837.03
671.14	1689.57
671.33	1683.43
671.53	1757.16
671.72	1755.11
671.91	1738.73
672.10	1658.85
672.29	1740.77
672.48	1712.10
672.68	1720.29
672.87	1689.57
673.06	1665.00
673.25	1763.30
673.44	1624.04
673.64	1705.96
673.83	1693.67
674.02	1691.62
674.21	1775.59
674.40	1673.19
674.59	1759.21
674.79	1665.00
674.98	1720.29
675.17	1830.88
675.36	1630.18
675.55	1671.14
675.74	1628.14
675.94	1724.39
676.13	1748.97
676.32	1599.46
676.51	1693.67
676.70	1546.22
676.89	1757.16
677.08	1626.09
677.28	1781.73
677.47	1716.20
677.66	1687.53
677.85	1642.47
678.04	1753.06
678.23	1736.68
678.42	1642.47
678.62	1755.11
678.81	1658.85
679.00	1689.57
679.19	1794.02
679.38	1779.68
679.57	1710.05
679.76	1675.24
679.96	1660.90
680.15	1722.34
680.34	1650.66
680.53	1759.21
680.72	1812.45
680.91	1671.14
681.10	1679.33
681.29	1701.86
681.48	1738.73
681.68	1746.92
681.87	1896.42
682.06	1687.53
682.25	1765.35
682.44	1611.75
682.63	1783.78
682.82	1617.90
683.01	1693.67
683.20	1599.46
683.39	1740.77
683.59	1722.34
683.78	1677.29
683.97	1718.25
684.16	1621.99
684.35	1595.37
684.54	1810.40
684.73	1632.23
684.92	1695.72
685.11	1773.54
685.30	1703.91
685.49	1748.97
685.69	1773.54
685.88	1708.01
686.07	1599.46
686.26	1605.61
686.45	1789.92
686.64	1730.53
686.83	1720.29
687.02	1667.05
687.21	1837.03
687.40	1718.25
687.59	1812.45
687.78	1765.35
687.97	1826.79
688.16	1703.91
688.35	1714.15
688.54	1662.95
688.74	1478.63
688.93	1671.14
689.12	1701.86
689.31	1771.49
689.50	1824.74
689.69	1679.33
689.88	1677.29
690.07	1626.09
690.26	1699.81
690.45	1681.38
690.64	1599.46
690.83	1681.38
691.02	1699.81
691.21	1732.58
691.40	1763.30
691.59	1685.48
691.78	1738.73
691.97	1677.29
692.16	1642.47
692.35	1785.83
692.54	1757.16
692.73	1576.94
692.92	1783.78
693.11	1722.34
693.30	1724.39
693.49	1740.77
693.68	1773.54
693.87	1718.25
694.06	1675.24
694.25	1642.47
694.44	1720.29
694.63	1630.18
694.82	1693.67
695.01	1740.77
695.20	1738.73
695.39	1736.68
695.58	1695.72
695.77	1630.18
695.96	1679.33
696.15	1697.77
696.34	1681.38
696.53	1744.87
696.72	1632.23
696.91	1654.76
697.10	1736.68
697.29	1681.38
697.48	1810.40
697.67	1757.16
697.86	1574.89
698.05	1662.95
698.24	1738.73
698.43	1705.96
698.62	1757.16
698.81	1677.29
699.00	1785.83
699.19	1751.01
699.38	1722.34
699.57	1695.72
699.76	1722.34
699.95	1775.59
700.14	1705.96
700.32	1759.21
700.51	1675.24
700.70	1667.05
700.89	1816.55
701.08	1753.06
701.27	1630.18
701.46	1765.35
701.65	1746.92
701.84	1662.95
702.03	1634.28
702.22	1685.48
702.41	1744.87
702.60	1748.97
702.79	1656.81
702.98	1724.39
703.17	1736.68
703.35	1634.28
703.54	1724.39
703.73	1687.53
703.92	1699.81
704.11	1697.77
704.30	1761.25
704.49	1718.25
704.68	1650.66
704.87	1662.95
705.06	1761.25
705.25	1564.65
705.43	1605.61
705.62	1621.99
705.81	1738.73
706.00	1722.34
706.19	1746.92
706.38	1626.09
706.57	1818.60
706.76	1576.94
706.95	1787.88
707.14	1775.59
707.32	1687.53
707.51	1673.19
707.70	1654.76
707.89	1636.33
708.08	1712.10
708.27	1822.69
708.46	1714.15
708.65	1718.25
708.84	1722.34
709.02	1570.79
709.21	1662.95
709.40	1716.20
709.59	1695.72
709.78	1628.14
709.97	1646.57
710.16	1695.72
710.34	1728.49
710.53	1736.68
710.72	1650.66
710.91	1761.25
711.10	1634.28
711.29	1638.38
711.48	1804.26
711.66	1699.81
711.85	1662.95
712.04	1777.64
712.23	1667.05
712.42	1763.30
712.61	1775.59
712.80	1605.61
712.98	1658.85
713.17	1718.25
713.36	1712.10
713.55	1773.54
713.74	1718.25
713.93	1787.88
714.11	1671.14
714.30	1591.27
714.49	1716.20
714.68	1669.09
714.87	1630.18
715.06	1816.55
715.24	1781.73
715.43	1701.86
715.62	1628.14
715.81	1671.14
716.00	1738.73
716.18	1697.77
716.37	1708.01
716.56	1691.62
716.75	1753.06
716.94	1695.72
717.12	1740.77
717.31	1658.85
717.50	1642.47
717.69	1679.33
717.88	1722.34
718.06	1619.94
718.25	1763.30
718.44	1632.23
718.63	1746.92
718.82	1609.70
719.00	1705.96
719.19	1931.23
719.38	1656.81
719.57	1681.38
719.76	1652.71
719.94	1718.25
720.13	1761.25
720.32	1861.60
720.51	1746.92
720.69	1732.58
720.88	1763.30
721.07	1662.95
721.26	1808.36
721.44	1740.77
721.63	1681.38
721.82	1693.67
722.01	1673.19
722.20	1665.00
722.38	1732.58
722.57	1642.47
722.76	1691.62
722.95	1648.61
723.13	1689.57
723.32	1757.16
723.51	1728.49
723.70	1693.67
723.88	1730.53
724.07	1687.53
724.26	1748.97
724.44	1716.20
724.63	1810.40
724.82	1718.25
725.01	1675.24
725.19	1691.62
725.38	1775.59
725.57	1712.10
725.76	1791.97
725.94	1636.33
726.13	1710.05
726.32	1652.71
726.51	1650.66
726.69	1621.99
726.88	1691.62
727.07	1736.68
727.25	1705.96
727.44	1650.66
727.63	1656.81
727.82	1658.85
728.00	1662.95
728.19	1677.29
728.38	1687.53
728.56	1626.09
728.75	1796.07
728.94	1665.00
729.12	1732.58
729.31	1732.58
729.50	1609.70
729.69	1755.11
729.87	1687.53
730.06	1660.90
730.25	1699.81
730.43	1734.63
730.62	1628.14
730.81	1654.76
730.99	1646.57
731.18	1658.85
731.37	1683.43
731.55	1685.48
731.74	1724.39
731.93	1665.00
732.11	1722.34
732.30	1568.74
732.49	1716.20
732.67	1660.90
732.86	1679.33
733.05	1638.38
733.23	1697.77
733.42	1648.61
733.61	1763.30
733.79	1677.29
733.98	1783.78
734.17	1619.94
734.35	1689.57
734.54	1773.54
734.73	1746.92
734.91	1656.81
735.10	1712.10
735.29	1789.92
735.47	1527.78
735.66	1617.90
735.84	1738.73
736.03	1665.00
736.22	1728.49
736.40	1740.77
736.59	1576.94
736.78	1675.24
736.96	1730.53
737.15	1712.10
737.33	1724.39
737.52	1697.77
737.71	1718.25
737.89	1703.91
738.08	1683.43
738.27	1751.01
738.45	1789.92
738.64	1753.06
738.82	1632.23
739.01	1689.57
739.20	1665.00
739.38	1708.01
739.57	1673.19
739.75	1697.77
739.94	1728.49
740.13	1675.24
740.31	1726.44
740.50	1701.86
740.68	1634.28
740.87	1638.38
741.06	1765.35
741.24	1761.25
741.43	1648.61
741.61	1658.85
741.80	1665.00
741.99	1716.20
742.17	1720.29
742.36	1581.03
742.54	1748.97
742.73	1765.35
742.91	1710.05
743.10	1658.85
743.29	1681.38
743.47	1712.10
743.66	1587.18
743.84	1603.56
744.03	1714.15
744.21	1634.28
744.40	1667.05
744.59	1722.34
744.77	1650.66
744.96	1705.96
745.14	1656.81
745.33	1699.81
745.51	1658.85
745.70	1646.57
745.88	1667.05
746.07	1748.97
746.26	1691.62
746.44	1589.22
746.63	1675.24
746.81	1724.39
747.00	1681.38
747.18	1701.86
747.37	1626.09
747.55	1699.81
747.74	2027.49
747.92	1691.62
748.11	1718.25
748.29	1667.05
748.48	1712.10
748.66	1630.18
748.85	1689.57
749.03	1726.44
749.22	1566.70
749.41	1658.85
749.59	1767.40
749.78	1699.81
749.96	1613.80
750.15	1671.14
750.33	1738.73
750.52	1583.08
750.70	1652.71
750.89	1724.39
751.07	1716.20
751.26	1675.24
751.44	1632.23
751.63	1646.57
751.81	1652.71
752.00	1660.90
752.18	1714.15
752.37	1722.34
752.55	1658.85
752.74	1597.42
752.92	1691.62
753.10	1738.73
753.29	1677.29
753.47	1695.72
753.66	1554.41
753.84	1687.53
754.03	1615.85
754.21	1699.81
754.40	1744.87
754.58	1759.21
754.77	1720.29
754.95	1660.90
755.14	1662.95
755.32	1636.33
755.51	1613.80
755.69	1691.62
755.88	1615.85
756.06	1814.50
756.24	1605.61
756.43	1714.15
756.61	1673.19
756.80	1591.27
756.98	1636.33
757.17	1667.05
757.35	1710.05
757.54	1687.53
757.72	1695.72
757.90	1609.70
758.09	1728.49
758.27	1636.33
758.46	1572.84
758.64	1761.25
758.83	1751.01
759.01	1789.92
759.19	1703.91
759.38	1646.57
759.56	1691.62
759.75	1585.13
759.93	1716.20
760.12	1617.90
760.30	1669.09
760.48	1689.57
760.67	1728.49
760.85	1681.38
761.04	1617.90
761.22	1681.38
761.40	1695.72
761.59	1640.42
761.77	1681.38
761.96	1654.76
762.14	1654.76
762.32	1736.68
762.51	1693.67
762.69	1630.18
762.88	1662.95
763.06	1632.23
763.24	1662.95
763.43	1607.66
763.61	1699.81
763.80	1748.97
763.98	1804.26
764.16	1576.94
764.35	1587.18
764.53	1710.05
764.72	1619.94
764.90	1671.14
765.08	1726.44
765.27	1744.87
765.45	1587.18
765.63	1609.70
765.82	1757.16
766.00	1634.28
766.18	1673.19
766.37	1675.24
766.55	1607.66
766.74	1753.06
766.92	1642.47
767.10	1615.85
767.29	1757.16
767.47	1630.18
767.65	1677.29
767.84	1687.53
768.02	1757.16
768.20	1650.66
768.39	1744.87
768.57	1679.33
768.75	1665.00
768.94	1722.34
769.12	1574.89
769.30	1632.23
769.49	1734.63
769.67	1644.52
769.85	1837.03
770.04	1642.47
770.22	1550.31
770.40	1679.33
770.59	1646.57
770.77	1753.06
770.95	1716.20
771.14	1705.96
771.32	1617.90
771.50	1624.04
771.69	1624.04
771.87	1687.53
772.05	1644.52
772.24	1585.13
772.42	1740.77
772.60	1699.81
772.78	1773.54
772.97	1519.59
773.15	1736.68
773.33	1705.96
773.52	1615.85
773.70	1701.86
773.88	1767.40
774.07	1611.75
774.25	1669.09
774.43	1638.38
774.61	1630.18
774.80	1681.38
774.98	1783.78
775.16	1695.72
775.34	1712.10
775.53	1738.73
775.71	1800.16
775.89	1693.67
776.08	1621.99
776.26	1638.38
776.44	1763.30
776.62	1734.63
776.81	1640.42
776.99	1650.66
777.17	1642.47
777.35	1630.18
777.54	1638.38
777.72	1724.39
777.90	1615.85
778.08	1658.85
778.27	1705.96
778.45	1665.00
778.63	1626.09
778.81	1748.97
779.00	1746.92
779.18	1689.57
779.36	1689.57
779.54	1630.18
779.73	1619.94
779.91	1613.80
780.09	1615.85
780.27	1677.29
780.46	1679.33
780.64	1601.51
780.82	1634.28
781.00	1662.95
781.19	1665.00
781.37	1683.43
781.55	1705.96
781.73	1656.81
781.91	1693.67
782.10	1671.14
782.28	1787.88
782.46	1667.05
782.64	1714.15
782.82	1722.34
783.01	1630.18
783.19	1789.92
783.37	1681.38
783.55	1585.13
783.74	1621.99
783.92	1654.76
784.10	1724.39
784.28	1691.62
784.46	1636.33
784.64	1617.90
784.83	1689.57
785.01	1863.65
785.19	1740.77
785.37	1701.86
785.55	1607.66
785.74	1638.38
785.92	1738.73
786.10	1656.81
786.28	1820.64
786.46	1714.15
786.64	1599.46
786.83	1632.23
787.01	1638.38
787.19	1787.88
787.37	1808.36
787.55	1636.33
787.74	1679.33
787.92	1699.81
788.10	1744.87
788.28	1724.39
788.46	1673.19
788.64	1822.69
788.82	1714.15
789.01	1683.43
789.19	1683.43
789.37	1765.35
789.55	1673.19
789.73	1617.90
789.91	1654.76
790.09	1597.42
790.28	1617.90
790.46	1574.89
790.64	1665.00
790.82	1552.36
791.00	1630.18
791.18	1757.16
791.36	1617.90
791.55	1761.25
791.73	1669.09
791.91	1634.28
792.09	1638.38
792.27	1529.83
792.45	1683.43
792.63	1710.05
792.81	1642.47
793.00	1660.90
793.18	1654.76
793.36	1744.87
793.54	1683.43
793.72	1677.29
793.90	1693.67
794.08	1572.84
794.26	1681.38
794.44	1544.17
794.62	1603.56
794.81	1591.27
794.99	1652.71
795.17	1746.92
795.35	1613.80
795.53	1681.38
795.71	1769.44
795.89	1667.05
796.07	1619.94
796.25	1757.16
796.43	1720.29
796.61	1658.85
796.80	1650.66
796.98	1724.39
797.16	1671.14
797.34	1650.66
797.52	1587.18
797.70	1679.33
797.88	1714.15
798.06	1591.27
798.24	1740.77
798.42	1628.14
798.60	1687.53
798.78	1644.52
798.96	1724.39
799.14	1667.05
799.32	1665.00
799.51	1691.62
799.69	1689.57
799.87	1787.88
800.05	1718.25
800.23	1636.33
800.41	1644.52
800.59	1691.62
800.77	1640.42
800.95	1519.59
801.13	1757.16
801.31	1722.34
801.49	1787.88
801.67	1638.38
801.85	1679.33
802.03	1607.66
802.21	1617.90
802.39	1572.84
802.57	1642.47
802.75	1732.58
802.93	1718.25
803.11	1636.33
803.29	1689.57
803.47	1757.16
803.65	1632.23
803.83	1568.74
804.01	1654.76
804.19	1572.84
804.37	1617.90
804.55	1568.74
804.73	1691.62
804.91	1578.98
805.09	1746.92
805.27	1673.19
805.45	1675.24
805.63	1667.05
805.81	1705.96
805.99	1683.43
806.17	1630.18
806.35	1601.51
806.53	1662.95
806.71	1695.72
806.89	1681.38
807.07	1781.73
807.25	1724.39
807.43	1708.01
807.61	1730.53
807.79	1757.16
807.97	1640.42
808.15	1679.33
808.33	1683.43
808.51	1779.68
808.69	1611.75
808.87	1583.08
809.05	1552.36
809.23	1599.46
809.41	1562.60
809.59	1558.50
809.77	1736.68
809.95	1679.33
810.13	1740.77
810.31	1740.77
810.49	1677.29
810.67	1667.05
810.84	1642.47
811.02	1632.23
811.20	1617.90
811.38	1787.88
811.56	1566.70
811.74	1605.61
811.92	1669.09
812.10	1691.62
812.28	1744.87
812.46	1658.85
812.64	1654.76
812.82	1607.66
813.00	1677.29
813.18	1656.81
813.36	1642.47
813.53	1662.95
813.71	1703.91
813.89	1673.19
814.07	1650.66
814.25	1757.16
814.43	1628.14
814.61	1681.38
814.79	1613.80
814.97	1712.10
815.15	1748.97
815.33	1656.81
815.50	1630.18
815.68	1593.32
815.86	1683.43
816.04	1671.14
816.22	1665.00
816.40	1628.14
816.58	1697.77
816.76	1585.13
816.94	1613.80
817.11	1624.04
817.29	1603.56
817.47	1613.80
817.65	1671.14
817.83	1650.66
818.01	1669.09
818.19	1591.27
818.37	1658.85
818.54	1667.05
818.72	1630.18
818.90	1669.09
819.08	1652.71
819.26	1693.67
819.44	1759.21
819.62	1679.33
819.80	1648.61
819.97	1775.59
820.15	1587.18
820.33	1634.28
820.51	1597.42
820.69	1660.90
820.87	1697.77
821.05	1720.29
821.22	1583.08
821.40	1726.44
821.58	1665.00
821.76	1515.50
821.94	1667.05
822.12	1738.73
822.29	1648.61
822.47	1658.85
822.65	1708.01
822.83	1613.80
823.01	1677.29
823.19	1648.61
823.36	1574.89
823.54	1665.00
823.72	1716.20
823.90	1769.44
824.08	1607.66
824.25	1712.10
824.43	1726.44
824.61	1621.99
824.79	1652.71
824.97	1568.74
825.15	1720.29
825.32	1640.42
825.50	1710.05
825.68	1576.94
825.86	1720.29
826.04	1667.05
826.21	1730.53
826.39	1624.04
826.57	1691.62
826.75	1677.29
826.93	1746.92
827.10	1708.01
827.28	1662.95
827.46	1667.05
827.64	1722.34
827.81	1679.33
827.99	1609.70
828.17	1646.57
828.35	1572.84
828.53	1662.95
828.70	1736.68
828.88	1689.57
829.06	1638.38
829.24	1646.57
829.41	1693.67
829.59	1699.81
829.77	1665.00
829.95	1720.29
830.12	1624.04
830.30	1677.29
830.48	1699.81
830.66	1554.41
830.84	1683.43
831.01	1767.40
831.19	1603.56
831.37	1789.92
831.55	1601.51
831.72	1755.11
831.90	1630.18
832.08	1603.56
832.25	1734.63
832.43	1712.10
832.61	1820.64
832.79	1568.74
832.96	1601.51
833.14	1789.92
833.32	1787.88
833.50	1562.60
833.67	1675.24
833.85	1560.55
834.03	1585.13
834.20	1720.29
834.38	1716.20
834.56	1705.96
834.74	1572.84
834.91	1621.99
835.09	1691.62
835.27	1658.85
835.44	1712.10
835.62	1542.12
835.80	1662.95
835.98	1617.90
836.15	1646.57
836.33	1685.48
836.51	1613.80
836.68	1634.28
836.86	1636.33
837.04	1820.64
837.21	1712.10
837.39	1748.97
837.57	1646.57
837.75	1671.14
837.92	1611.75
838.10	1628.14
838.28	1673.19
838.45	1708.01
838.63	1650.66
838.81	1728.49
838.98	1683.43
839.16	1673.19
839.34	1605.61
839.51	1605.61
839.69	1589.22
839.87	1624.04
840.04	1654.76
840.22	1949.67
840.40	1542.12
840.57	1591.27
840.75	1619.94
840.93	1576.94
841.10	1636.33
841.28	1740.77
841.46	1619.94
841.63	1679.33
841.81	1593.32
841.98	1566.70
842.16	1810.40
842.34	1665.00
842.51	1560.55
842.69	1693.67
842.87	1654.76
843.04	1671.14
843.22	1585.13
843.40	1533.93
843.57	1603.56
843.75	1574.89
843.92	1574.89
844.10	1626.09
844.28	1728.49
844.45	1611.75
844.63	1679.33
844.81	1665.00
844.98	1742.82
845.16	1753.06
845.33	1736.68
845.51	1667.05
845.69	1724.39
845.86	1726.44
846.04	1638.38
846.21	1650.66
846.39	1593.32
846.57	1638.38
846.74	1535.98
846.92	1728.49
847.09	1675.24
847.27	1617.90
847.45	1654.76
847.62	1705.96
847.80	1630.18
847.97	1687.53
848.15	1619.94
848.32	1568.74
848.50	1703.91
848.68	1650.66
848.85	1626.09
849.03	1474.54
849.20	1585.13
849.38	1636.33
849.56	1556.46
849.73	1556.46
849.91	1701.86
850.08	1714.15
850.26	1624.04
850.43	1587.18
850.61	1683.43
850.78	1542.12
850.96	1724.39
851.14	1546.22
851.31	1828.84
851.49	1669.09
851.66	1667.05
851.84	1609.70
852.01	1609.70
852.19	1630.18
852.36	1626.09
852.54	1703.91
852.71	1632.23
852.89	1665.00
853.07	1605.61
853.24	1703.91
853.42	1585.13
853.59	1648.61
853.77	1574.89
853.94	1695.72
854.12	1744.87
854.29	1525.74
854.47	1591.27
854.64	1652.71
854.82	1695.72
854.99	1728.49
855.17	1628.14
855.34	1601.51
855.52	1679.33
855.69	1759.21
855.87	1636.33
856.04	1677.29
856.22	1771.49
856.39	1609.70
856.57	1646.57
856.74	1562.60
856.92	1751.01
857.09	1560.55
857.27	1609.70
857.44	1665.00
857.62	1740.77
857.79	1660.90
857.97	1683.43
858.14	1634.28
858.32	1665.00
858.49	1621.99
858.67	1654.76
858.84	1621.99
859.02	1630.18
859.19	1630.18
859.37	1495.02
859.54	1710.05
859.72	1601.51
859.89	1638.38
860.06	1638.38
860.24	1548.26
860.41	1740.77
860.59	1621.99
860.76	1597.42
860.94	1607.66
861.11	1671.14
861.29	1642.47
861.46	1654.76
861.64	1642.47
861.81	1726.44
861.98	1599.46
862.16	1654.76
862.33	1597.42
862.51	1621.99
862.68	1648.61
862.86	1636.33
863.03	1636.33
863.21	1656.81
863.38	1621.99
863.55	1654.76
863.73	1597.42
863.90	1726.44
864.08	1662.95
864.25	1624.04
864.43	1726.44
864.60	1617.90
864.77	1638.38
864.95	1708.01
865.12	1556.46
865.30	1708.01
865.47	1800.16
865.64	1660.90
865.82	1621.99
865.99	1753.06
866.17	1669.09
866.34	1720.29
866.51	1548.26
866.69	1673.19
866.86	1779.68
867.04	1718.25
867.21	1632.23
867.38	1646.57
867.56	1619.94
867.73	1601.51
867.91	1683.43
868.08	1533.93
868.25	1552.36
868.43	1695.72
868.60	1642.47
868.78	1554.41
868.95	1675.24
869.12	1740.77
869.30	1660.90
869.47	1662.95
869.64	1574.89
869.82	1642.47
869.99	1671.14
870.16	1728.49
870.34	1638.38
870.51	1687.53
870.69	1574.89
870.86	1644.52
871.03	1665.00
871.21	1603.56
871.38	1744.87
871.55	1703.91
871.73	1599.46
871.90	1650.66
872.07	1589.22
872.25	1564.65
872.42	1556.46
872.59	1552.36
872.77	1607.66
872.94	1566.70
873.11	1624.04
873.29	1736.68
873.46	1634.28
873.63	1671.14
873.81	1665.00
873.98	1777.64
874.15	1652.71
874.33	1658.85
874.50	1728.49
874.67	1708.01
874.85	1593.32
875.02	1632.23
875.19	1650.66
875.37	1587.18
875.54	1601.51
875.71	1714.15
875.88	1667.05
876.06	1683.43
876.23	1646.57
876.40	1650.66
876.58	1656.81
876.75	1708.01
876.92	1597.42
877.10	1660.90
877.27	1646.57
877.44	1699.81
877.61	1646.57
877.79	1617.90
877.96	1740.77
878.13	1718.25
878.31	1587.18
878.48	1732.58
878.65	1697.77
878.82	1607.66
879.00	1665.00
879.17	1693.67
879.34	1595.37
879.51	1562.60
879.69	1640.42
879.86	1517.54
880.03	1581.03
880.21	1601.51
880.38	1605.61
880.55	1763.30
880.72	1660.90
880.90	1644.52
881.07	1607.66
881.24	1732.58
881.41	1595.37
881.59	1624.04
881.76	1693.67
881.93	1769.44
882.10	1599.46
882.28	1617.90
882.45	1744.87
882.62	1699.81
882.79	1665.00
882.96	1521.64
883.14	1658.85
883.31	1714.15
883.48	1638.38
883.65	1570.79
883.83	1601.51
884.00	1621.99
884.17	1638.38
884.34	1685.48
884.51	1628.14
884.69	1689.57
884.86	1619.94
885.03	1675.24
885.20	1581.03
885.38	1757.16
885.55	1599.46
885.72	1681.38
885.89	1636.33
886.06	1724.39
886.24	1591.27
886.41	1652.71
886.58	1718.25
886.75	1726.44
886.92	1585.13
887.10	1658.85
887.27	1613.80
887.44	1759.21
887.61	1716.20
887.78	1683.43
887.95	1712.10
888.13	1609.70
888.30	1665.00
888.47	1738.73
888.64	1646.57
888.81	1697.77
888.99	1601.51
889.16	1746.92
889.33	1611.75
889.50	1636.33
889.67	1621.99
889.84	1683.43
890.01	1703.91
890.19	1658.85
890.36	1744.87
890.53	1675.24
890.70	1593.32
890.87	1640.42
891.04	1656.81
891.22	1748.97
891.39	1589.22
891.56	1722.34
891.73	1736.68
891.90	1572.84
892.07	1501.16
892.24	1712.10
892.42	1621.99
892.59	1628.14
892.76	1705.96
892.93	1667.05
893.10	1650.66
893.27	1669.09
893.44	1576.94
893.61	1630.18
893.79	1652.71
893.96	1656.81
894.13	1621.99
894.30	1599.46
894.47	1726.44
894.64	1685.48
894.81	1572.84
894.98	1611.75
895.15	1738.73
895.33	1593.32
895.50	1599.46
895.67	1634.28
895.84	1665.00
896.01	1583.08
896.18	1503.21
896.35	1759.21
896.52	1685.48
896.69	1638.38
896.86	1667.05
897.04	1712.10
897.21	1640.42
897.38	1773.54
897.55	1726.44
897.72	1683.43
897.89	1595.37
898.06	1732.58
898.23	1638.38
898.40	1617.90
898.57	1609.70
898.74	1660.90
898.91	1654.76
899.08	1613.80
899.26	1662.95
899.43	1748.97
899.60	1634.28
899.77	1755.11
899.94	1558.50
900.11	1589.22
900.28	1671.14
900.45	1630.18
900.62	1589.22
900.79	1757.16
900.96	1660.90
901.13	1601.51
901.30	1617.90
901.47	1560.55
901.64	1599.46
901.81	1615.85
901.98	1648.61
902.15	1675.24
902.32	1566.70
902.49	1693.67
902.66	1703.91
902.83	1654.76
903.01	1603.56
903.18	1667.05
903.35	1587.18
903.52	1681.38
903.69	1636.33
903.86	1693.67
904.03	1648.61
904.20	1697.77
904.37	1669.09
904.54	1521.64
904.71	1529.83
904.88	1714.15
905.05	1638.38
905.22	1710.05
905.39	1540.07
905.56	1517.54
905.73	1564.65
905.90	1601.51
906.07	1662.95
906.24	1634.28
906.41	1609.70
906.58	1755.11
906.75	1658.85
906.92	1566.70
907.09	1609.70
907.26	1654.76
907.43	1601.51
907.60	1708.01
907.77	1689.57
907.93	1654.76
908.10	1613.80
908.27	1724.39
908.44	1583.08
908.61	1568.74
908.78	1687.53
908.95	1734.63
909.12	1701.86
909.29	1578.98
909.46	1630.18
909.63	1703.91
909.80	1710.05
909.97	1638.38
910.14	1646.57
910.31	1675.24
910.48	1636.33
910.65	1667.05
910.82	1578.98
910.99	1703.91
911.16	1642.47
911.33	1689.57
911.50	1609.70
911.66	1628.14
911.83	1638.38
912.00	1675.24
912.17	1595.37
912.34	1517.54
912.51	1640.42
912.68	1605.61
912.85	1679.33
913.02	1779.68
913.19	1605.61
913.36	1597.42
913.53	1722.34
913.70	1626.09
913.86	1675.24
914.03	1630.18
914.20	1634.28
914.37	1654.76
914.54	1640.42
914.71	1660.90
914.88	1650.66
915.05	1615.85
915.22	1621.99
915.39	1699.81
915.55	1712.10
915.72	1642.47
915.89	1652.71
916.06	1603.56
916.23	1560.55
916.40	1642.47
916.57	1611.75
916.74	1644.52
916.91	1574.89
917.07	1576.94
917.24	1527.78
917.41	1632.23
917.58	1701.86
917.75	1597.42
917.92	1605.61
918.09	1615.85
918.26	1630.18
918.42	1576.94
918.59	1650.66
918.76	1572.84
918.93	1628.14
919.10	1621.99
919.27	1642.47
919.44	1744.87
919.60	1650.66
919.77	1640.42
919.94	1638.38
920.11	1673.19
920.28	1691.62
920.45	1605.61
920.61	1658.85
920.78	1605.61
920.95	1728.49
921.12	1626.09
921.29	1621.99
921.46	1585.13
921.62	1576.94
921.79	1638.38
921.96	1654.76
922.13	1638.38
922.30	1697.77
922.47	1689.57
922.63	1589.22
922.80	1675.24
922.97	1632.23
923.14	1523.69
923.31	1607.66
923.47	1650.66
923.64	1781.73
923.81	1683.43
923.98	1646.57
924.15	1531.88
924.32	1669.09
924.48	1638.38
924.65	1671.14
924.82	1572.84
924.99	1652.71
925.15	1517.54
925.32	1781.73
925.49	1624.04
925.66	1675.24
925.83	1603.56
925.99	1568.74
926.16	1658.85
926.33	1691.62
926.50	1521.64
926.67	1650.66
926.83	1693.67
927.00	1714.15
927.17	1673.19
927.34	1603.56
927.50	1578.98
927.67	1765.35
927.84	1705.96
928.01	1634.28
928.17	1695.72
928.34	1634.28
928.51	1667.05
928.68	1601.51
928.84	1689.57
929.01	1626.09
929.18	1591.27
929.35	1652.71
929.51	1708.01
929.68	1673.19
929.85	1632.23
930.02	1662.95
930.18	1634.28
930.35	1634.28
930.52	1675.24
930.69	1658.85
930.85	1720.29
931.02	1603.56
931.19	1595.37
931.36	1624.04
931.52	1601.51
931.69	1677.29
931.86	1607.66
932.02	1681.38
932.19	1570.79
932.36	1695.72
932.53	1642.47
932.69	1560.55
932.86	1703.91
933.03	1587.18
933.19	1517.54
933.36	1591.27
933.53	1751.01
933.70	1654.76
933.86	1697.77
934.03	1683.43
934.20	1585.13
934.36	1642.47
934.53	1572.84
934.70	1542.12
934.86	1658.85
935.03	1642.47
935.20	1642.47
935.36	1597.42
935.53	1581.03
935.70	1632.23
935.86	1648.61
936.03	1525.74
936.20	1519.59
936.36	1615.85
936.53	1642.47
936.70	1607.66
936.86	1796.07
937.03	1652.71
937.20	1548.26
937.36	1736.68
937.53	1548.26
937.70	1540.07
937.86	1521.64
938.03	1621.99
938.20	1787.88
938.36	1603.56
938.53	1687.53
938.70	1566.70
938.86	1632.23
939.03	1652.71
939.20	1681.38
939.36	1544.17
939.53	1716.20
939.70	1851.36
939.86	1671.14
940.03	1662.95
940.19	1611.75
940.36	1630.18
940.53	1712.10
940.69	1621.99
940.86	1701.86
941.03	1628.14
941.19	1605.61
941.36	1656.81
941.52	1644.52
941.69	1595.37
941.86	1656.81
942.02	1626.09
942.19	1619.94
942.35	1662.95
942.52	1671.14
942.69	1705.96
942.85	1656.81
943.02	1583.08
943.18	1609.70
943.35	1671.14
943.52	1617.90
943.68	1540.07
943.85	1603.56
944.01	1601.51
944.18	1665.00
944.35	1740.77
944.51	1681.38
944.68	1593.32
944.84	1626.09
945.01	1589.22
945.17	1675.24
945.34	1699.81
945.51	1683.43
945.67	1634.28
945.84	1646.57
946.00	1624.04
946.17	1609.70
946.33	1642.47
946.50	1753.06
946.67	1611.75
946.83	1634.28
947.00	1681.38
947.16	1607.66
947.33	1607.66
947.49	1583.08
947.66	1578.98
947.82	1716.20
947.99	1564.65
948.16	1656.81
948.32	1597.42
948.49	1673.19
948.65	1675.24
948.82	1626.09
948.98	1605.61
949.15	1591.27
949.31	1652.71
949.48	1626.09
949.64	1621.99
949.81	1636.33
949.97	1656.81
950.14	1722.34
950.30	1576.94
950.47	1638.38
950.63	1636.33
950.80	1599.46
950.96	1597.42
951.13	1607.66
951.30	1617.90
951.46	1595.37
951.63	1716.20
951.79	1683.43
951.96	1693.67
952.12	1597.42
952.29	1619.94
952.45	1626.09
952.62	1609.70
952.78	1646.57
952.94	1583.08
953.11	1568.74
953.27	1527.78
953.44	1695.72
953.60	1646.57
953.77	1656.81
953.93	1617.90
954.10	1691.62
954.26	1621.99
954.43	1583.08
954.59	1675.24
954.76	1773.54
954.92	1638.38
955.09	1636.33
955.25	1591.27
955.42	1597.42
955.58	1677.29
955.75	1589.22
955.91	1544.17
956.07	1644.52
956.24	1673.19
956.40	1665.00
956.57	1656.81
956.73	1562.60
956.90	1630.18
957.06	1656.81
957.23	1533.93
957.39	1595.37
957.56	1611.75
957.72	1611.75
957.88	1609.70
958.05	1601.51
958.21	1644.52
958.38	1710.05
958.54	1628.14
958.71	1716.20
958.87	1607.66
959.03	1542.12
959.20	1673.19
959.36	1578.98
959.53	1589.22
959.69	1583.08
959.85	1714.15
960.02	1527.78
960.18	1650.66
960.35	1613.80
960.51	1726.44
960.68	1605.61
960.84	1634.28
961.00	1630.18
961.17	1566.70
961.33	1665.00
961.50	1632.23
961.66	1681.38
961.82	1566.70
961.99	1591.27
962.15	1648.61
962.31	1619.94
962.48	1626.09
962.64	1650.66
962.81	1708.01
962.97	1621.99
963.13	1589.22
963.30	1626.09
963.46	1605.61
963.62	1613.80
963.79	1611.75
963.95	1632.23
964.12	1544.17
964.28	1652.71
964.44	1574.89
964.61	1665.00
964.77	1597.42
964.93	1667.05
965.10	1689.57
965.26	1578.98
965.42	1636.33
965.59	1574.89
965.75	1628.14
965.92	1617.90
966.08	1679.33
966.24	1615.85
966.41	1585.13
966.57	1621.99
966.73	1681.38
966.90	1691.62
967.06	1658.85
967.22	1597.42
967.39	1650.66
967.55	1609.70
967.71	1617.90
967.88	1705.96
968.04	1662.95
968.20	1544.17
968.37	1585.13
968.53	1603.56
968.69	1630.18
968.85	1681.38
969.02	1705.96
969.18	1621.99
969.34	1609.70
969.51	1646.57
969.67	1687.53
969.83	1568.74
970.00	1720.29
970.16	1617.90
970.32	1654.76
970.48	1744.87
970.65	1644.52
970.81	1548.26
970.97	1634.28
971.14	1515.50
971.30	1777.64
971.46	1667.05
971.63	1681.38
971.79	1662.95
971.95	1671.14
972.11	1564.65
972.28	1562.60
972.44	1648.61
972.60	1585.13
972.76	1619.94
972.93	1619.94
973.09	1662.95
973.25	1648.61
973.42	1660.90
973.58	1660.90
973.74	1621.99
973.90	1693.67
974.07	1595.37
974.23	1603.56
974.39	1705.96
974.55	1591.27
974.72	1636.33
974.88	1542.12
975.04	1628.14
975.20	1593.32
975.37	1667.05
975.53	1640.42
975.69	1679.33
975.85	1550.31
976.01	1574.89
976.18	1589.22
976.34	1630.18
976.50	1554.41
976.66	1679.33
976.83	1662.95
976.99	1615.85
977.15	1630.18
977.31	1544.17
977.47	1732.58
977.64	1566.70
977.80	1599.46
977.96	1585.13
978.12	1572.84
978.29	1613.80
978.45	1519.59
978.61	1533.93
978.77	1605.61
978.93	1624.04
979.10	1650.66
979.26	1650.66
979.42	1599.46
979.58	1478.63
979.74	1628.14
979.91	1634.28
980.07	1589.22
980.23	1621.99
980.39	1703.91
980.55	1634.28
980.71	1550.31
980.88	1527.78
981.04	1665.00
981.20	1570.79
981.36	1613.80
981.52	1550.31
981.68	1558.50
981.85	1640.42
982.01	1675.24
982.17	1552.36
982.33	1630.18
982.49	1589.22
982.65	1570.79
982.82	1589.22
982.98	1617.90
983.14	1587.18
983.30	1693.67
983.46	1619.94
983.62	1691.62
983.79	1517.54
983.95	1609.70
984.11	1525.74
984.27	1632.23
984.43	1619.94
984.59	1621.99
984.75	1599.46
984.91	1617.90
985.08	1695.72
985.24	1540.07
985.40	1566.70
985.56	1585.13
985.72	1681.38
985.88	1566.70
986.04	1552.36
986.20	1519.59
986.37	1650.66
986.53	1564.65
986.69	1650.66
986.85	1535.98
987.01	1576.94
987.17	1654.76
987.33	1591.27
987.49	1566.70
987.65	1613.80
987.82	1644.52
987.98	1533.93
988.14	1609.70
988.30	1646.57
988.46	1538.02
988.62	1595.37
988.78	1566.70
988.94	1587.18
989.10	1605.61
989.26	1591.27
989.42	1607.66
989.59	1486.83
989.75	1611.75
989.91	1681.38
990.07	1591.27
990.23	1548.26
990.39	1669.09
990.55	1624.04
990.71	1548.26
990.87	1656.81
991.03	1683.43
991.19	1587.18
991.35	1574.89
991.51	1632.23
991.67	1656.81
991.83	1562.60
992.00	1609.70
992.16	1630.18
992.32	1626.09
992.48	1611.75
992.64	1531.88
992.80	1642.47
992.96	1605.61
993.12	1652.71
993.28	1695.72
993.44	1593.32
993.60	1669.09
993.76	1646.57
993.92	1665.00
994.08	1691.62
994.24	1609.70
994.40	1654.76
994.56	1697.77
994.72	1638.38
994.88	1638.38
995.04	1609.70
995.20	1595.37
995.36	1581.03
995.52	1628.14
995.68	1640.42
995.84	1550.31
996.00	1685.48
996.16	1552.36
996.32	1556.46
996.48	1603.56
996.64	1712.10
996.80	1548.26
996.96	1669.09
997.12	1601.51
997.28	1544.17
997.44	1597.42
997.60	1609.70
997.76	1535.98
997.92	1671.14
998.08	1679.33
998.24	1564.65
998.40	1669.09
998.56	1673.19
998.72	1542.12
998.88	1597.42
999.04	1646.57
999.20	1640.42
999.36	1572.84
999.52	1775.59
999.68	1601.51
999.84	1642.47
1000.00	1617.90
1000.16	1665.00
1000.32	1603.56
1000.48	1738.73
1000.64	1566.70
1000.80	1560.55
1000.95	1556.46
1001.11	1654.76
1001.27	1597.42
1001.43	1665.00
1001.59	1562.60
1001.75	1595.37
1001.91	1562.60
1002.07	1560.55
1002.23	1583.08
1002.39	1630.18
1002.55	1660.90
1002.71	1601.51
1002.87	1527.78
1003.03	1525.74
1003.19	1593.32
1003.34	1671.14
1003.50	1630.18
1003.66	1634.28
1003.82	1605.61
1003.98	1576.94
1004.14	1703.91
1004.30	1601.51
1004.46	1626.09
1004.62	1619.94
1004.78	1656.81
1004.94	1617.90
1005.09	1679.33
1005.25	1687.53
1005.41	1564.65
1005.57	1566.70
1005.73	1634.28
1005.89	1593.32
1006.05	1607.66
1006.21	1683.43
1006.37	1538.02
1006.52	1544.17
1006.68	1529.83
1006.84	1705.96
1007.00	1581.03
1007.16	1638.38
1007.32	1617.90
1007.48	1609.70
1007.64	1621.99
1007.79	1581.03
1007.95	1542.12
1008.11	1615.85
1008.27	1640.42
1008.43	1589.22
1008.59	1632.23
1008.75	1671.14
1008.91	1617.90
1009.06	1605.61
1009.22	1583.08
1009.38	1630.18
1009.54	1667.05
1009.70	1609.70
1009.86	1693.67
1010.01	1673.19
1010.17	1546.22
1010.33	1621.99
1010.49	1624.04
1010.65	1658.85
1010.81	1535.98
1010.96	1593.32
1011.12	1558.50
1011.28	1544.17
1011.44	1746.92
1011.60	1636.33
1011.76	1583.08
1011.91	1693.67
1012.07	1546.22
1012.23	1484.78
1012.39	1578.98
1012.55	1679.33
1012.71	1679.33
1012.86	1578.98
1013.02	1523.69
1013.18	1642.47
1013.34	1613.80
1013.50	1624.04
1013.65	1701.86
1013.81	1544.17
1013.97	1617.90
1014.13	1658.85
1014.29	1603.56
1014.44	1650.66
1014.60	1556.46
1014.76	1665.00
1014.92	1556.46
1015.07	1630.18
1015.23	1646.57
1015.39	1519.59
1015.55	1605.61
1015.71	1630.18
1015.86	1568.74
1016.02	1585.13
1016.18	1566.70
1016.34	1624.04
1016.49	1583.08
1016.65	1718.25
1016.81	1646.57
1016.97	1656.81
1017.12	1605.61
1017.28	1576.94
1017.44	1544.17
1017.60	1490.92
1017.75	1679.33
1017.91	1499.11
1018.07	1599.46
1018.23	1689.57
1018.38	1581.03
1018.54	1587.18
1018.70	1585.13
1018.86	1603.56
1019.01	1568.74
1019.17	1599.46
1019.33	1699.81
1019.49	1624.04
1019.64	1687.53
1019.80	1601.51
1019.96	1624.04
1020.12	1617.90
1020.27	1515.50
1020.43	1591.27
1020.59	1669.09
1020.74	1679.33
1020.90	1675.24
1021.06	1621.99
1021.22	1632.23
1021.37	1583.08
1021.53	1574.89
1021.69	1677.29
1021.84	1521.64
1022.00	1673.19
1022.16	1609.70
1022.31	1593.32
1022.47	1648.61
1022.63	1677.29
1022.79	1517.54
1022.94	1535.98
1023.10	1658.85
1023.26	1578.98
1023.41	1593.32
1023.57	1605.61
1023.73	1609.70
1023.88	1624.04
1024.04	1603.56
1024.20	1609.70
1024.35	1607.66
1024.51	1679.33
1024.67	1732.58
1024.82	1677.29
1024.98	1531.88
1025.14	1665.00
1025.29	1558.50
1025.45	1714.15
1025.61	1535.98
1025.76	1617.90
1025.92	1638.38
1026.08	1652.71
1026.23	1650.66
1026.39	1617.90
1026.55	1597.42
1026.70	1556.46
1026.86	1621.99
1027.02	1642.47
1027.17	1605.61
1027.33	1658.85
1027.48	1685.48
1027.64	1574.89
1027.80	1560.55
1027.95	1646.57
1028.11	1624.04
1028.27	1587.18
1028.42	1654.76
1028.58	1615.85
1028.73	1574.89
1028.89	1578.98
1029.05	1710.05
1029.20	1679.33
>>>>>End Processed Spectral Data<<<<<
