SpectraSuite Data File
++++++++++++++++++++++++++++++++++++
Date: Fri Jun 02 14:51:06 CEST 2017
User: INFO_000
Dark Spectrum Present: No
Reference Spectrum Present: No
Number of Sampled Component Spectra: 1
Spectrometers: USB4H00879
Integration Time (usec): 80000 (USB4H00879)
Spectra Averaged: 1 (USB4H00879)
Boxcar Smoothing: 0 (USB4H00879)
Correct for Electrical Dark: No (USB4H00879)
Strobe/Lamp Enabled: No (USB4H00879)
Correct for Detector Non-linearity: No (USB4H00879)
Correct for Stray Light: No (USB4H00879)
Number of Pixels in Processed Spectrum: 3648
>>>>>Begin Processed Spectral Data<<<<<
345.13	1304.56
345.34	1304.56
345.56	1304.56
345.78	1239.02
345.99	1277.93
346.21	1673.19
346.42	1687.53
346.64	1593.32
346.86	1787.88
347.07	1695.72
347.29	1726.44
347.50	1597.42
347.72	1650.66
347.94	1757.16
348.15	1619.94
348.37	1603.56
348.59	1730.53
348.80	1703.91
349.02	1703.91
349.23	1667.05
349.45	1691.62
349.67	1736.68
349.88	1673.19
350.10	1796.07
350.31	1720.29
350.53	1746.92
350.75	1834.98
350.96	1714.15
351.18	1687.53
351.39	1615.85
351.61	1687.53
351.82	1777.64
352.04	1834.98
352.26	1705.96
352.47	1753.06
352.69	1695.72
352.90	1638.38
353.12	1726.44
353.34	1687.53
353.55	1736.68
353.77	1650.66
353.98	1710.05
354.20	1648.61
354.41	1669.09
354.63	1800.16
354.85	1939.43
355.06	1685.48
355.28	1617.90
355.49	1714.15
355.71	1687.53
355.92	1697.77
356.14	1755.11
356.35	1689.57
356.57	1712.10
356.79	1718.25
357.00	1708.01
357.22	1730.53
357.43	1650.66
357.65	1785.83
357.86	1665.00
358.08	1638.38
358.29	1773.54
358.51	1834.98
358.72	1783.78
358.94	1744.87
359.16	1734.63
359.37	1681.38
359.59	1646.57
359.80	1740.77
360.02	1699.81
360.23	1779.68
360.45	1781.73
360.66	1650.66
360.88	1605.61
361.09	1734.63
361.31	1779.68
361.52	1708.01
361.74	1796.07
361.95	1828.84
362.17	1679.33
362.38	1882.08
362.60	1726.44
362.81	1775.59
363.03	1603.56
363.24	1654.76
363.46	1757.16
363.67	1718.25
363.89	1781.73
364.10	1679.33
364.32	1632.23
364.53	1777.64
364.75	1732.58
364.96	1712.10
365.18	1677.29
365.39	1716.20
365.61	1671.14
365.82	1757.16
366.04	1681.38
366.25	1619.94
366.47	1695.72
366.68	1744.87
366.90	1720.29
367.11	1783.78
367.33	1738.73
367.54	1751.01
367.76	1671.14
367.97	1740.77
368.19	1732.58
368.40	1667.05
368.62	1597.42
368.83	1658.85
369.05	1718.25
369.26	1691.62
369.48	1716.20
369.69	1634.28
369.91	1650.66
370.12	1609.70
370.33	1724.39
370.55	1703.91
370.76	1638.38
370.98	1757.16
371.19	1751.01
371.41	1611.75
371.62	1716.20
371.84	1564.65
372.05	1736.68
372.27	1753.06
372.48	1691.62
372.69	1687.53
372.91	1691.62
373.12	1748.97
373.34	1679.33
373.55	1742.82
373.77	1724.39
373.98	1691.62
374.20	1685.48
374.41	1773.54
374.62	1730.53
374.84	1642.47
375.05	1726.44
375.27	1638.38
375.48	1726.44
375.70	1693.67
375.91	1804.26
376.12	1871.84
376.34	1644.52
376.55	1757.16
376.77	1712.10
376.98	1632.23
377.19	1603.56
377.41	1671.14
377.62	1716.20
377.84	1687.53
378.05	1787.88
378.27	1687.53
378.48	1834.98
378.69	1841.12
378.91	1816.55
379.12	1714.15
379.34	1667.05
379.55	1757.16
379.76	1701.86
379.98	1695.72
380.19	1740.77
380.41	1728.49
380.62	1759.21
380.83	1714.15
381.05	1673.19
381.26	1820.64
381.47	1671.14
381.69	1679.33
381.90	1796.07
382.12	1769.44
382.33	1742.82
382.54	1644.52
382.76	1656.81
382.97	1673.19
383.19	1681.38
383.40	1773.54
383.61	1714.15
383.83	1628.14
384.04	1648.61
384.25	1675.24
384.47	1746.92
384.68	1732.58
384.89	1650.66
385.11	1581.03
385.32	1591.27
385.54	1646.57
385.75	1751.01
385.96	1689.57
386.18	1710.05
386.39	1736.68
386.60	1615.85
386.82	1609.70
387.03	1654.76
387.24	1771.49
387.46	1667.05
387.67	1734.63
387.88	1662.95
388.10	1677.29
388.31	1619.94
388.52	1775.59
388.74	1771.49
388.95	1673.19
389.16	1744.87
389.38	1597.42
389.59	1705.96
389.80	1744.87
390.02	1726.44
390.23	1783.78
390.44	1755.11
390.66	1656.81
390.87	1634.28
391.08	1730.53
391.30	1837.03
391.51	1736.68
391.72	1771.49
391.94	1736.68
392.15	1650.66
392.36	1628.14
392.58	1617.90
392.79	1730.53
393.00	1759.21
393.22	1746.92
393.43	1761.25
393.64	1757.16
393.85	1812.45
394.07	1589.22
394.28	1720.29
394.49	1703.91
394.71	1689.57
394.92	1722.34
395.13	1775.59
395.35	1660.90
395.56	1705.96
395.77	1691.62
395.98	1724.39
396.20	1716.20
396.41	1763.30
396.62	1740.77
396.84	1703.91
397.05	1640.42
397.26	1779.68
397.47	1808.36
397.69	1652.71
397.90	1900.52
398.11	1689.57
398.32	1730.53
398.54	1716.20
398.75	1712.10
398.96	1697.77
399.18	1763.30
399.39	1665.00
399.60	1732.58
399.81	1701.86
400.03	1626.09
400.24	1945.57
400.45	1720.29
400.66	1730.53
400.88	1646.57
401.09	1865.70
401.30	1673.19
401.51	1796.07
401.73	1740.77
401.94	1785.83
402.15	1630.18
402.36	1787.88
402.58	1757.16
402.79	1767.40
403.00	1746.92
403.21	1714.15
403.43	1832.93
403.64	1773.54
403.85	1695.72
404.06	1808.36
404.27	1646.57
404.49	1769.44
404.70	1724.39
404.91	1834.98
405.12	1708.01
405.34	1757.16
405.55	1757.16
405.76	1550.31
405.97	1699.81
406.19	1802.21
406.40	1722.34
406.61	1673.19
406.82	1724.39
407.03	1652.71
407.25	1597.42
407.46	1812.45
407.67	1732.58
407.88	1847.27
408.09	1728.49
408.31	1642.47
408.52	1654.76
408.73	1708.01
408.94	1687.53
409.15	1716.20
409.37	1769.44
409.58	1796.07
409.79	1726.44
410.00	1800.16
410.21	1665.00
410.43	1693.67
410.64	1687.53
410.85	1755.11
411.06	1673.19
411.27	1697.77
411.48	1785.83
411.70	1722.34
411.91	1687.53
412.12	1746.92
412.33	1757.16
412.54	1640.42
412.76	1746.92
412.97	1787.88
413.18	1675.24
413.39	1773.54
413.60	1738.73
413.81	1757.16
414.03	1570.79
414.24	1724.39
414.45	1806.31
414.66	1630.18
414.87	1705.96
415.08	1697.77
415.30	1656.81
415.51	1761.25
415.72	1718.25
415.93	1660.90
416.14	1728.49
416.35	1703.91
416.56	1736.68
416.78	1757.16
416.99	1718.25
417.20	1757.16
417.41	1816.55
417.62	1689.57
417.83	1757.16
418.04	1687.53
418.26	1732.58
418.47	1722.34
418.68	1732.58
418.89	1773.54
419.10	1886.18
419.31	1740.77
419.52	1720.29
419.73	1720.29
419.95	1773.54
420.16	1699.81
420.37	1671.14
420.58	1765.35
420.79	1597.42
421.00	1626.09
421.21	1712.10
421.42	1636.33
421.63	1697.77
421.85	1705.96
422.06	1665.00
422.27	1695.72
422.48	1669.09
422.69	1722.34
422.90	1669.09
423.11	1632.23
423.32	1837.03
423.53	1824.74
423.75	1699.81
423.96	1779.68
424.17	1744.87
424.38	1837.03
424.59	1730.53
424.80	1634.28
425.01	1671.14
425.22	1626.09
425.43	1705.96
425.64	1755.11
425.85	1804.26
426.06	1804.26
426.28	1726.44
426.49	1609.70
426.70	1669.09
426.91	1714.15
427.12	1761.25
427.33	1621.99
427.54	1617.90
427.75	1761.25
427.96	1798.12
428.17	1734.63
428.38	1621.99
428.59	1761.25
428.80	1660.90
429.01	1632.23
429.23	1667.05
429.44	1724.39
429.65	1699.81
429.86	1689.57
430.07	1652.71
430.28	1607.66
430.49	1761.25
430.70	1736.68
430.91	1806.31
431.12	1619.94
431.33	1744.87
431.54	1759.21
431.75	1675.24
431.96	1720.29
432.17	1699.81
432.38	1796.07
432.59	1748.97
432.80	1851.36
433.01	1744.87
433.22	1681.38
433.43	1740.77
433.64	1742.82
433.85	1845.22
434.06	1724.39
434.27	1636.33
434.49	1667.05
434.70	1714.15
434.91	1781.73
435.12	1720.29
435.33	1732.58
435.54	1638.38
435.75	1595.37
435.96	1701.86
436.17	1658.85
436.38	1769.44
436.59	1722.34
436.80	1619.94
437.01	1757.16
437.22	1710.05
437.43	1773.54
437.64	1656.81
437.85	1581.03
438.06	1742.82
438.27	1712.10
438.48	1699.81
438.69	1746.92
438.90	1665.00
439.11	1728.49
439.32	1814.50
439.53	1576.94
439.74	1654.76
439.95	1675.24
440.16	1665.00
440.37	1720.29
440.57	1619.94
440.78	1634.28
440.99	1720.29
441.20	1689.57
441.41	1617.90
441.62	1673.19
441.83	1591.27
442.04	1603.56
442.25	1650.66
442.46	1681.38
442.67	1578.98
442.88	1849.32
443.09	1675.24
443.30	1624.04
443.51	1599.46
443.72	1716.20
443.93	1712.10
444.14	1757.16
444.35	1701.86
444.56	1691.62
444.77	1658.85
444.98	1744.87
445.19	1714.15
445.40	1691.62
445.61	1564.65
445.81	1658.85
446.02	1837.03
446.23	1679.33
446.44	1603.56
446.65	1660.90
446.86	1677.29
447.07	1789.92
447.28	1673.19
447.49	1722.34
447.70	1677.29
447.91	1716.20
448.12	1683.43
448.33	1720.29
448.54	1689.57
448.74	1607.66
448.95	1644.52
449.16	1744.87
449.37	1716.20
449.58	1689.57
449.79	1699.81
450.00	1630.18
450.21	1724.39
450.42	1693.67
450.63	1673.19
450.84	1583.08
451.05	1697.77
451.25	1673.19
451.46	1638.38
451.67	1812.45
451.88	1751.01
452.09	1736.68
452.30	1628.14
452.51	1667.05
452.72	1738.73
452.93	1818.60
453.13	1671.14
453.34	1634.28
453.55	1753.06
453.76	1695.72
453.97	1667.05
454.18	1607.66
454.39	1708.01
454.60	1683.43
454.81	1767.40
455.01	1679.33
455.22	1640.42
455.43	1587.18
455.64	1679.33
455.85	1765.35
456.06	1742.82
456.27	1740.77
456.48	1658.85
456.68	1734.63
456.89	1781.73
457.10	1642.47
457.31	1693.67
457.52	1685.48
457.73	1703.91
457.94	1746.92
458.14	1607.66
458.35	1681.38
458.56	1761.25
458.77	1665.00
458.98	1708.01
459.19	1687.53
459.39	1757.16
459.60	1662.95
459.81	1671.14
460.02	1742.82
460.23	1671.14
460.44	1671.14
460.65	1626.09
460.85	1607.66
461.06	1708.01
461.27	1675.24
461.48	1671.14
461.69	1603.56
461.89	1572.84
462.10	1658.85
462.31	1544.17
462.52	1675.24
462.73	1644.52
462.94	1703.91
463.14	1667.05
463.35	1677.29
463.56	1828.84
463.77	1773.54
463.98	1638.38
464.18	1642.47
464.39	1679.33
464.60	1716.20
464.81	1570.79
465.02	1691.62
465.23	1753.06
465.43	1720.29
465.64	1642.47
465.85	1626.09
466.06	1722.34
466.27	1730.53
466.47	1728.49
466.68	1712.10
466.89	1617.90
467.10	1656.81
467.30	1695.72
467.51	1771.49
467.72	1773.54
467.93	1578.98
468.14	1671.14
468.34	1787.88
468.55	1712.10
468.76	1804.26
468.97	1660.90
469.17	1703.91
469.38	1851.36
469.59	1665.00
469.80	1654.76
470.01	1679.33
470.21	1685.48
470.42	1673.19
470.63	1693.67
470.84	1824.74
471.04	1697.77
471.25	1822.69
471.46	1787.88
471.67	1806.31
471.87	1630.18
472.08	1783.78
472.29	1695.72
472.50	1765.35
472.70	1658.85
472.91	1658.85
473.12	1564.65
473.33	1730.53
473.53	1716.20
473.74	1667.05
473.95	1677.29
474.16	1660.90
474.36	1658.85
474.57	1720.29
474.78	1675.24
474.99	1779.68
475.19	1769.44
475.40	1732.58
475.61	1765.35
475.81	1775.59
476.02	1724.39
476.23	1708.01
476.44	1593.32
476.64	1638.38
476.85	1667.05
477.06	1710.05
477.27	1671.14
477.47	1728.49
477.68	1697.77
477.89	1746.92
478.09	1716.20
478.30	1701.86
478.51	1703.91
478.71	1673.19
478.92	1761.25
479.13	1695.72
479.34	1693.67
479.54	1755.11
479.75	1673.19
479.96	1677.29
480.16	1667.05
480.37	1638.38
480.58	1687.53
480.78	1738.73
480.99	1675.24
481.20	1746.92
481.41	1802.21
481.61	1693.67
481.82	1826.79
482.03	1638.38
482.23	1695.72
482.44	1759.21
482.65	1843.17
482.85	1789.92
483.06	1703.91
483.27	1783.78
483.47	1736.68
483.68	1705.96
483.89	1695.72
484.09	1808.36
484.30	1769.44
484.51	1746.92
484.71	1673.19
484.92	1662.95
485.13	1755.11
485.33	1652.71
485.54	1624.04
485.75	1720.29
485.95	1808.36
486.16	1662.95
486.37	1759.21
486.57	1626.09
486.78	1689.57
486.98	1695.72
487.19	1654.76
487.40	1716.20
487.60	1685.48
487.81	1697.77
488.02	1572.84
488.22	1722.34
488.43	1789.92
488.64	1652.71
488.84	1626.09
489.05	1730.53
489.25	1662.95
489.46	1734.63
489.67	1673.19
489.87	1794.02
490.08	1720.29
490.29	1650.66
490.49	1783.78
490.70	1699.81
490.90	1681.38
491.11	1683.43
491.32	1624.04
491.52	1662.95
491.73	1636.33
491.94	1705.96
492.14	1667.05
492.35	1697.77
492.55	1736.68
492.76	1724.39
492.97	1611.75
493.17	1689.57
493.38	1679.33
493.58	1773.54
493.79	1703.91
494.00	1650.66
494.20	1675.24
494.41	1796.07
494.61	1697.77
494.82	1720.29
495.02	1650.66
495.23	1773.54
495.44	1689.57
495.64	1708.01
495.85	1699.81
496.05	1732.58
496.26	1705.96
496.47	1695.72
496.67	1687.53
496.88	1785.83
497.08	1685.48
497.29	1617.90
497.49	1820.64
497.70	1732.58
497.91	1650.66
498.11	1781.73
498.32	1689.57
498.52	1740.77
498.73	1624.04
498.93	1736.68
499.14	1787.88
499.34	1777.64
499.55	1777.64
499.76	1650.66
499.96	1759.21
500.17	1740.77
500.37	1726.44
500.58	1710.05
500.78	1732.58
500.99	1697.77
501.19	1667.05
501.40	1818.60
501.60	1566.70
501.81	1628.14
502.02	1740.77
502.22	1646.57
502.43	1701.86
502.63	1830.88
502.84	1710.05
503.04	1695.72
503.25	1617.90
503.45	1761.25
503.66	1654.76
503.86	1730.53
504.07	1667.05
504.27	1642.47
504.48	1677.29
504.68	1681.38
504.89	1785.83
505.09	1585.13
505.30	1634.28
505.50	1683.43
505.71	1652.71
505.91	1738.73
506.12	1687.53
506.32	1718.25
506.53	1648.61
506.73	1720.29
506.94	1617.90
507.14	1634.28
507.35	1775.59
507.55	1705.96
507.76	1742.82
507.96	1636.33
508.17	1730.53
508.37	1634.28
508.58	1757.16
508.78	1738.73
508.99	1748.97
509.19	1738.73
509.40	1718.25
509.60	1624.04
509.81	1751.01
510.01	1687.53
510.22	1675.24
510.42	1759.21
510.63	1814.50
510.83	1718.25
511.04	1701.86
511.24	1759.21
511.44	1687.53
511.65	1679.33
511.85	1683.43
512.06	1714.15
512.26	1640.42
512.47	1746.92
512.67	1660.90
512.88	1771.49
513.08	1654.76
513.29	1716.20
513.49	1650.66
513.69	1636.33
513.90	1656.81
514.10	1718.25
514.31	1650.66
514.51	1710.05
514.72	1724.39
514.92	1724.39
515.13	1699.81
515.33	1765.35
515.53	1654.76
515.74	1658.85
515.94	1673.19
516.15	1724.39
516.35	1576.94
516.56	1632.23
516.76	1667.05
516.96	1646.57
517.17	1685.48
517.37	1726.44
517.58	1611.75
517.78	1687.53
517.99	1716.20
518.19	1832.93
518.39	1730.53
518.60	1796.07
518.80	1619.94
519.01	1683.43
519.21	1671.14
519.41	1746.92
519.62	1662.95
519.82	1691.62
520.03	1679.33
520.23	1716.20
520.43	1646.57
520.64	1730.53
520.84	1886.18
521.05	1665.00
521.25	1693.67
521.45	1763.30
521.66	1607.66
521.86	1777.64
522.07	1712.10
522.27	1705.96
522.47	1544.17
522.68	1624.04
522.88	1677.29
523.08	1718.25
523.29	1601.51
523.49	1679.33
523.70	1624.04
523.90	1671.14
524.10	1732.58
524.31	1626.09
524.51	1595.37
524.71	1775.59
524.92	1712.10
525.12	1671.14
525.33	1724.39
525.53	1785.83
525.73	1781.73
525.94	1724.39
526.14	1687.53
526.34	1699.81
526.55	1708.01
526.75	1701.86
526.95	1853.41
527.16	1636.33
527.36	1691.62
527.56	1693.67
527.77	1638.38
527.97	1734.63
528.17	1714.15
528.38	1724.39
528.58	1734.63
528.78	1673.19
528.99	1648.61
529.19	1736.68
529.39	1619.94
529.60	1638.38
529.80	1710.05
530.00	1644.52
530.21	1650.66
530.41	1757.16
530.61	1824.74
530.82	1683.43
531.02	1738.73
531.22	1718.25
531.43	1671.14
531.63	1683.43
531.83	1740.77
532.04	1759.21
532.24	1744.87
532.44	1679.33
532.64	1744.87
532.85	1656.81
533.05	1720.29
533.25	1595.37
533.46	1691.62
533.66	1650.66
533.86	1679.33
534.07	1712.10
534.27	1609.70
534.47	1814.50
534.67	1714.15
534.88	1615.85
535.08	1679.33
535.28	1669.09
535.49	1705.96
535.69	1742.82
535.89	1712.10
536.09	1720.29
536.30	1716.20
536.50	1689.57
536.70	1828.84
536.91	1648.61
537.11	1802.21
537.31	1726.44
537.51	1665.00
537.72	1734.63
537.92	1722.34
538.12	1705.96
538.32	1695.72
538.53	1718.25
538.73	1634.28
538.93	1679.33
539.13	1736.68
539.34	1773.54
539.54	1644.52
539.74	1779.68
539.94	1763.30
540.15	1771.49
540.35	1667.05
540.55	1656.81
540.75	1640.42
540.96	1687.53
541.16	1644.52
541.36	1705.96
541.56	1710.05
541.77	1744.87
541.97	1830.88
542.17	1632.23
542.37	1787.88
542.58	1765.35
542.78	1757.16
542.98	1765.35
543.18	1685.48
543.38	1744.87
543.59	1712.10
543.79	1626.09
543.99	1705.96
544.19	1632.23
544.40	1716.20
544.60	1748.97
544.80	1689.57
545.00	1630.18
545.20	1734.63
545.41	1724.39
545.61	1605.61
545.81	1630.18
546.01	1720.29
546.21	1646.57
546.42	1751.01
546.62	1773.54
546.82	1667.05
547.02	1673.19
547.22	1695.72
547.43	1759.21
547.63	1714.15
547.83	1671.14
548.03	1681.38
548.23	1765.35
548.44	1748.97
548.64	1677.29
548.84	1761.25
549.04	1654.76
549.24	1843.17
549.45	1824.74
549.65	1617.90
549.85	1693.67
550.05	1718.25
550.25	1540.07
550.45	1820.64
550.66	1798.12
550.86	1662.95
551.06	1708.01
551.26	1654.76
551.46	1779.68
551.66	1755.11
551.87	1820.64
552.07	1679.33
552.27	1708.01
552.47	1775.59
552.67	1740.77
552.87	1673.19
553.07	1716.20
553.28	1736.68
553.48	1748.97
553.68	1671.14
553.88	1748.97
554.08	1710.05
554.28	1597.42
554.48	1722.34
554.69	1685.48
554.89	1677.29
555.09	1648.61
555.29	1578.98
555.49	1779.68
555.69	1769.44
555.89	1656.81
556.10	1687.53
556.30	1650.66
556.50	1716.20
556.70	1712.10
556.90	1705.96
557.10	1726.44
557.30	1703.91
557.50	1710.05
557.70	1703.91
557.91	1654.76
558.11	1658.85
558.31	1802.21
558.51	1740.77
558.71	1773.54
558.91	1787.88
559.11	1628.14
559.31	1630.18
559.51	1771.49
559.72	1726.44
559.92	1716.20
560.12	1632.23
560.32	1720.29
560.52	1785.83
560.72	1658.85
560.92	1802.21
561.12	1722.34
561.32	1644.52
561.52	1650.66
561.72	1845.22
561.93	1712.10
562.13	1673.19
562.33	1654.76
562.53	1722.34
562.73	1630.18
562.93	1693.67
563.13	1728.49
563.33	1802.21
563.53	1716.20
563.73	1710.05
563.93	1738.73
564.13	1689.57
564.33	1689.57
564.53	1759.21
564.74	1628.14
564.94	1617.90
565.14	1708.01
565.34	1722.34
565.54	1712.10
565.74	1652.71
565.94	1720.29
566.14	1714.15
566.34	1703.91
566.54	1726.44
566.74	1673.19
566.94	1748.97
567.14	1744.87
567.34	1720.29
567.54	1699.81
567.74	1763.30
567.94	1757.16
568.14	1601.51
568.34	1818.60
568.54	1695.72
568.74	1757.16
568.94	1683.43
569.14	1771.49
569.34	1794.02
569.54	1652.71
569.75	1699.81
569.95	1701.86
570.15	1843.17
570.35	1697.77
570.55	1630.18
570.75	1730.53
570.95	1695.72
571.15	1736.68
571.35	1667.05
571.55	1687.53
571.75	1728.49
571.95	1699.81
572.15	1667.05
572.35	1722.34
572.55	1660.90
572.75	1673.19
572.95	1695.72
573.15	1677.29
573.35	1773.54
573.55	1722.34
573.75	1673.19
573.95	1888.23
574.15	1689.57
574.35	1716.20
574.55	1646.57
574.75	1628.14
574.95	1589.22
575.15	1705.96
575.34	1728.49
575.54	1656.81
575.74	1712.10
575.94	1705.96
576.14	1665.00
576.34	1746.92
576.54	1693.67
576.74	1804.26
576.94	1603.56
577.14	1679.33
577.34	1691.62
577.54	1757.16
577.74	1640.42
577.94	1689.57
578.14	1671.14
578.34	1748.97
578.54	1640.42
578.74	1681.38
578.94	1742.82
579.14	1744.87
579.34	1593.32
579.54	1769.44
579.74	1675.24
579.94	1642.47
580.13	1712.10
580.33	1683.43
580.53	1669.09
580.73	1685.48
580.93	1789.92
581.13	1667.05
581.33	1738.73
581.53	1701.86
581.73	1736.68
581.93	1658.85
582.13	1718.25
582.33	1636.33
582.53	1710.05
582.73	1681.38
582.92	1681.38
583.12	1861.60
583.32	1699.81
583.52	1683.43
583.72	1765.35
583.92	1744.87
584.12	1736.68
584.32	1660.90
584.52	1601.51
584.72	1677.29
584.92	1658.85
585.11	1679.33
585.31	1755.11
585.51	1609.70
585.71	1730.53
585.91	1777.64
586.11	1728.49
586.31	1634.28
586.51	1601.51
586.71	1720.29
586.91	1669.09
587.10	1705.96
587.30	1808.36
587.50	1716.20
587.70	1652.71
587.90	1679.33
588.10	1720.29
588.30	1722.34
588.50	1679.33
588.69	1634.28
588.89	1718.25
589.09	1777.64
589.29	1654.76
589.49	1640.42
589.69	1662.95
589.89	1755.11
590.08	1693.67
590.28	1732.58
590.48	1703.91
590.68	1699.81
590.88	1634.28
591.08	1742.82
591.28	1673.19
591.47	1769.44
591.67	1605.61
591.87	1705.96
592.07	1781.73
592.27	1646.57
592.47	1609.70
592.67	1695.72
592.86	1669.09
593.06	1732.58
593.26	1716.20
593.46	1714.15
593.66	1708.01
593.86	1806.31
594.05	1724.39
594.25	1675.24
594.45	1697.77
594.65	1726.44
594.85	1746.92
595.05	1634.28
595.24	1757.16
595.44	1679.33
595.64	1662.95
595.84	1699.81
596.04	1791.97
596.23	1638.38
596.43	1708.01
596.63	1726.44
596.83	1691.62
597.03	1824.74
597.22	1693.67
597.42	1652.71
597.62	1705.96
597.82	1701.86
598.02	1773.54
598.21	1685.48
598.41	1675.24
598.61	1675.24
598.81	1652.71
599.01	1773.54
599.20	1722.34
599.40	1679.33
599.60	1705.96
599.80	1685.48
600.00	1820.64
600.19	1732.58
600.39	1710.05
600.59	1767.40
600.79	1851.36
600.98	1687.53
601.18	1787.88
601.38	1751.01
601.58	1755.11
601.78	1736.68
601.97	1748.97
602.17	1740.77
602.37	1654.76
602.57	1785.83
602.76	1710.05
602.96	1656.81
603.16	1552.36
603.36	1755.11
603.55	1669.09
603.75	1658.85
603.95	1716.20
604.15	1769.44
604.34	1697.77
604.54	1705.96
604.74	1699.81
604.94	1742.82
605.13	1621.99
605.33	1675.24
605.53	1591.27
605.73	1748.97
605.92	1656.81
606.12	1632.23
606.32	1677.29
606.52	1755.11
606.71	1759.21
606.91	1738.73
607.11	1658.85
607.30	1718.25
607.50	1744.87
607.70	1818.60
607.90	1701.86
608.09	1650.66
608.29	1724.39
608.49	1720.29
608.68	1638.38
608.88	1675.24
609.08	1628.14
609.28	1689.57
609.47	1705.96
609.67	1714.15
609.87	1697.77
610.06	1675.24
610.26	1720.29
610.46	1779.68
610.66	1630.18
610.85	1609.70
611.05	1732.58
611.25	1693.67
611.44	1628.14
611.64	1691.62
611.84	1738.73
612.03	1693.67
612.23	1685.48
612.43	1720.29
612.62	1722.34
612.82	1748.97
613.02	1783.78
613.21	1703.91
613.41	1734.63
613.61	1660.90
613.80	1585.13
614.00	1740.77
614.20	1781.73
614.39	1759.21
614.59	1753.06
614.79	1654.76
614.98	1708.01
615.18	1681.38
615.38	1669.09
615.57	1691.62
615.77	1791.97
615.97	1710.05
616.16	1695.72
616.36	1730.53
616.56	1593.32
616.75	1667.05
616.95	1648.61
617.15	1773.54
617.34	1675.24
617.54	1765.35
617.74	1818.60
617.93	1789.92
618.13	1644.52
618.32	1658.85
618.52	1667.05
618.72	1638.38
618.91	1789.92
619.11	1728.49
619.31	1748.97
619.50	1712.10
619.70	1619.94
619.90	1732.58
620.09	1697.77
620.29	1751.01
620.48	1814.50
620.68	1660.90
620.88	1669.09
621.07	1736.68
621.27	1759.21
621.46	1720.29
621.66	1669.09
621.86	1748.97
622.05	1695.72
622.25	1882.08
622.44	1759.21
622.64	1720.29
622.84	1652.71
623.03	1650.66
623.23	1654.76
623.42	1669.09
623.62	1699.81
623.82	1722.34
624.01	1681.38
624.21	1714.15
624.40	1773.54
624.60	1662.95
624.80	1689.57
624.99	1703.91
625.19	1736.68
625.38	1703.91
625.58	1720.29
625.77	1738.73
625.97	1740.77
626.17	1654.76
626.36	1654.76
626.56	1757.16
626.75	1667.05
626.95	1718.25
627.14	1755.11
627.34	1679.33
627.54	1767.40
627.73	1789.92
627.93	1751.01
628.12	1687.53
628.32	1742.82
628.51	1609.70
628.71	1826.79
628.90	1742.82
629.10	1705.96
629.30	1662.95
629.49	1814.50
629.69	1765.35
629.88	1697.77
630.08	1757.16
630.27	1902.56
630.47	1753.06
630.66	1665.00
630.86	1714.15
631.05	1691.62
631.25	1720.29
631.44	1771.49
631.64	1615.85
631.84	1609.70
632.03	1724.39
632.23	1656.81
632.42	1728.49
632.62	1585.13
632.81	1658.85
633.01	1728.49
633.20	1822.69
633.40	1808.36
633.59	1648.61
633.79	1667.05
633.98	1675.24
634.18	1769.44
634.37	1789.92
634.57	1658.85
634.76	1708.01
634.96	1763.30
635.15	1851.36
635.35	1736.68
635.54	1753.06
635.74	1724.39
635.93	1687.53
636.13	1738.73
636.32	1828.84
636.52	1699.81
636.71	1673.19
636.91	1808.36
637.10	1691.62
637.30	1656.81
637.49	1722.34
637.69	1744.87
637.88	1744.87
638.08	1624.04
638.27	1660.90
638.46	1734.63
638.66	1654.76
638.85	1708.01
639.05	1755.11
639.24	1841.12
639.44	1675.24
639.63	1738.73
639.83	1773.54
640.02	1689.57
640.22	1732.58
640.41	1646.57
640.61	1748.97
640.80	1705.96
640.99	1687.53
641.19	1822.69
641.38	1830.88
641.58	1673.19
641.77	1658.85
641.97	1650.66
642.16	1673.19
642.36	1839.08
642.55	1669.09
642.74	1736.68
642.94	1753.06
643.13	1636.33
643.33	1703.91
643.52	1726.44
643.72	1798.12
643.91	1667.05
644.10	1796.07
644.30	1728.49
644.49	1777.64
644.69	1681.38
644.88	1705.96
645.08	1796.07
645.27	1683.43
645.46	1552.36
645.66	1654.76
645.85	1726.44
646.05	1673.19
646.24	1679.33
646.43	1656.81
646.63	1798.12
646.82	1763.30
647.02	1716.20
647.21	1851.36
647.40	1632.23
647.60	1689.57
647.79	1738.73
647.99	1636.33
648.18	1701.86
648.37	1673.19
648.57	1751.01
648.76	1662.95
648.96	1576.94
649.15	1656.81
649.34	1794.02
649.54	1716.20
649.73	1712.10
649.92	1703.91
650.12	1722.34
650.31	1689.57
650.51	1853.41
650.70	1693.67
650.89	1708.01
651.09	1691.62
651.28	1718.25
651.47	1589.22
651.67	1708.01
651.86	1789.92
652.06	1558.50
652.25	1767.40
652.44	1603.56
652.64	1755.11
652.83	1765.35
653.02	1708.01
653.22	1691.62
653.41	1660.90
653.60	1695.72
653.80	1658.85
653.99	1751.01
654.18	1689.57
654.38	1658.85
654.57	1718.25
654.76	1736.68
654.96	1677.29
655.15	1695.72
655.34	1701.86
655.54	1705.96
655.73	1660.90
655.92	1650.66
656.12	1667.05
656.31	1732.58
656.50	1736.68
656.70	1683.43
656.89	1662.95
657.08	1634.28
657.28	1746.92
657.47	1656.81
657.66	1642.47
657.86	1691.62
658.05	1740.77
658.24	1738.73
658.43	1740.77
658.63	1695.72
658.82	1796.07
659.01	1681.38
659.21	1806.31
659.40	1746.92
659.59	1699.81
659.79	1619.94
659.98	1808.36
660.17	1728.49
660.36	1765.35
660.56	1685.48
660.75	1742.82
660.94	1781.73
661.14	1710.05
661.33	1654.76
661.52	1673.19
661.71	1730.53
661.91	1660.90
662.10	1701.86
662.29	1617.90
662.49	1634.28
662.68	1654.76
662.87	1708.01
663.06	1779.68
663.26	1699.81
663.45	1837.03
663.64	1716.20
663.83	1779.68
664.03	1775.59
664.22	1779.68
664.41	1824.74
664.60	1787.88
664.80	1607.66
664.99	1783.78
665.18	1730.53
665.37	1775.59
665.57	1814.50
665.76	1767.40
665.95	1710.05
666.14	1712.10
666.34	1638.38
666.53	1716.20
666.72	1658.85
666.91	1693.67
667.11	1671.14
667.30	1830.88
667.49	1705.96
667.68	1785.83
667.87	1691.62
668.07	1865.70
668.26	1720.29
668.45	1599.46
668.64	1740.77
668.84	1744.87
669.03	1650.66
669.22	1742.82
669.41	1703.91
669.60	1656.81
669.80	1738.73
669.99	1740.77
670.18	1613.80
670.37	1810.40
670.57	1769.44
670.76	1718.25
670.95	1798.12
671.14	1583.08
671.33	1675.24
671.53	1767.40
671.72	1759.21
671.91	1791.97
672.10	1699.81
672.29	1665.00
672.48	1626.09
672.68	1705.96
672.87	1726.44
673.06	1667.05
673.25	1714.15
673.44	1638.38
673.64	1689.57
673.83	1705.96
674.02	1675.24
674.21	1800.16
674.40	1736.68
674.59	1691.62
674.79	1673.19
674.98	1740.77
675.17	1697.77
675.36	1533.93
675.55	1613.80
675.74	1599.46
675.94	1781.73
676.13	1683.43
676.32	1601.51
676.51	1630.18
676.70	1671.14
676.89	1681.38
677.08	1613.80
677.28	1783.78
677.47	1640.42
677.66	1687.53
677.85	1585.13
678.04	1728.49
678.23	1794.02
678.42	1658.85
678.62	1695.72
678.81	1665.00
679.00	1716.20
679.19	1822.69
679.38	1654.76
679.57	1710.05
679.76	1654.76
679.96	1624.04
680.15	1888.23
680.34	1728.49
680.53	1773.54
680.72	1716.20
680.91	1677.29
681.10	1654.76
681.29	1771.49
681.48	1775.59
681.68	1744.87
681.87	1736.68
682.06	1769.44
682.25	1658.85
682.44	1665.00
682.63	1757.16
682.82	1583.08
683.01	1775.59
683.20	1689.57
683.39	1855.46
683.59	1703.91
683.78	1640.42
683.97	1677.29
684.16	1683.43
684.35	1683.43
684.54	1705.96
684.73	1646.57
684.92	1685.48
685.11	1757.16
685.30	1693.67
685.49	1703.91
685.69	1804.26
685.88	1683.43
686.07	1712.10
686.26	1681.38
686.45	1753.06
686.64	1701.86
686.83	1710.05
687.02	1746.92
687.21	1724.39
687.40	1675.24
687.59	1830.88
687.78	1757.16
687.97	1773.54
688.16	1662.95
688.35	1738.73
688.54	1714.15
688.74	1527.78
688.93	1728.49
689.12	1675.24
689.31	1880.04
689.50	1771.49
689.69	1615.85
689.88	1789.92
690.07	1712.10
690.26	1669.09
690.45	1642.47
690.64	1638.38
690.83	1720.29
691.02	1759.21
691.21	1722.34
691.40	1675.24
691.59	1671.14
691.78	1767.40
691.97	1691.62
692.16	1621.99
692.35	1693.67
692.54	1820.64
692.73	1660.90
692.92	1783.78
693.11	1712.10
693.30	1779.68
693.49	1671.14
693.68	1705.96
693.87	1665.00
694.06	1697.77
694.25	1665.00
694.44	1624.04
694.63	1673.19
694.82	1656.81
695.01	1734.63
695.20	1728.49
695.39	1617.90
695.58	1734.63
695.77	1615.85
695.96	1716.20
696.15	1695.72
696.34	1660.90
696.53	1667.05
696.72	1701.86
696.91	1695.72
697.10	1687.53
697.29	1753.06
697.48	1748.97
697.67	1775.59
697.86	1667.05
698.05	1642.47
698.24	1703.91
698.43	1671.14
698.62	1691.62
698.81	1724.39
699.00	1726.44
699.19	1705.96
699.38	1746.92
699.57	1667.05
699.76	1703.91
699.95	1650.66
700.14	1642.47
700.32	1789.92
700.51	1671.14
700.70	1714.15
700.89	1796.07
701.08	1781.73
701.27	1662.95
701.46	1822.69
701.65	1703.91
701.84	1650.66
702.03	1611.75
702.22	1695.72
702.41	1757.16
702.60	1699.81
702.79	1685.48
702.98	1675.24
703.17	1748.97
703.35	1712.10
703.54	1712.10
703.73	1681.38
703.92	1665.00
704.11	1677.29
704.30	1705.96
704.49	1705.96
704.68	1624.04
704.87	1751.01
705.06	1746.92
705.25	1624.04
705.43	1652.71
705.62	1718.25
705.81	1722.34
706.00	1662.95
706.19	1673.19
706.38	1603.56
706.57	1857.51
706.76	1638.38
706.95	1701.86
707.14	1748.97
707.32	1621.99
707.51	1658.85
707.70	1691.62
707.89	1687.53
708.08	1689.57
708.27	1720.29
708.46	1728.49
708.65	1615.85
708.84	1671.14
709.02	1679.33
709.21	1650.66
709.40	1716.20
709.59	1728.49
709.78	1624.04
709.97	1701.86
710.16	1728.49
710.34	1603.56
710.53	1847.27
710.72	1705.96
710.91	1732.58
711.10	1576.94
711.29	1640.42
711.48	1705.96
711.66	1644.52
711.85	1617.90
712.04	1699.81
712.23	1660.90
712.42	1685.48
712.61	1746.92
712.80	1628.14
712.98	1675.24
713.17	1660.90
713.36	1630.18
713.55	1794.02
713.74	1742.82
713.93	1816.55
714.11	1665.00
714.30	1597.42
714.49	1787.88
714.68	1742.82
714.87	1609.70
715.06	1843.17
715.24	1757.16
715.43	1689.57
715.62	1662.95
715.81	1615.85
716.00	1728.49
716.18	1624.04
716.37	1716.20
716.56	1681.38
716.75	1781.73
716.94	1701.86
717.12	1734.63
717.31	1759.21
717.50	1675.24
717.69	1697.77
717.88	1779.68
718.06	1716.20
718.25	1728.49
718.44	1642.47
718.63	1703.91
718.82	1601.51
719.00	1705.96
719.19	1830.88
719.38	1628.14
719.57	1732.58
719.76	1611.75
719.94	1687.53
720.13	1669.09
720.32	1826.79
720.51	1650.66
720.69	1708.01
720.88	1677.29
721.07	1677.29
721.26	1761.25
721.44	1771.49
721.63	1738.73
721.82	1703.91
722.01	1691.62
722.20	1671.14
722.38	1708.01
722.57	1595.37
722.76	1671.14
722.95	1578.98
723.13	1691.62
723.32	1626.09
723.51	1722.34
723.70	1734.63
723.88	1742.82
724.07	1599.46
724.26	1767.40
724.44	1685.48
724.63	1740.77
724.82	1665.00
725.01	1658.85
725.19	1683.43
725.38	1742.82
725.57	1738.73
725.76	1740.77
725.94	1652.71
726.13	1667.05
726.32	1716.20
726.51	1624.04
726.69	1611.75
726.88	1732.58
727.07	1701.86
727.25	1689.57
727.44	1699.81
727.63	1624.04
727.82	1630.18
728.00	1748.97
728.19	1679.33
728.38	1669.09
728.56	1583.08
728.75	1730.53
728.94	1769.44
729.12	1652.71
729.31	1683.43
729.50	1701.86
729.69	1769.44
729.87	1689.57
730.06	1677.29
730.25	1673.19
730.43	1691.62
730.62	1589.22
730.81	1705.96
730.99	1624.04
731.18	1648.61
731.37	1683.43
731.55	1730.53
731.74	1654.76
731.93	1648.61
732.11	1642.47
732.30	1619.94
732.49	1683.43
732.67	1560.55
732.86	1605.61
733.05	1656.81
733.23	1701.86
733.42	1646.57
733.61	1740.77
733.79	1718.25
733.98	1802.21
734.17	1658.85
734.35	1753.06
734.54	1771.49
734.73	1716.20
734.91	1589.22
735.10	1701.86
735.29	1751.01
735.47	1617.90
735.66	1693.67
735.84	1816.55
736.03	1671.14
736.22	1728.49
736.40	1720.29
736.59	1570.79
736.78	1681.38
736.96	1671.14
737.15	1789.92
737.33	1703.91
737.52	1665.00
737.71	1742.82
737.89	1724.39
738.08	1746.92
738.27	1853.41
738.45	1728.49
738.64	1720.29
738.82	1660.90
739.01	1648.61
739.20	1712.10
739.38	1761.25
739.57	1746.92
739.75	1650.66
739.94	1773.54
740.13	1515.50
740.31	1673.19
740.50	1687.53
740.68	1703.91
740.87	1648.61
741.06	1740.77
741.24	1689.57
741.43	1746.92
741.61	1685.48
741.80	1644.52
741.99	1634.28
742.17	1705.96
742.36	1578.98
742.54	1705.96
742.73	1781.73
742.91	1699.81
743.10	1691.62
743.29	1730.53
743.47	1621.99
743.66	1570.79
743.84	1652.71
744.03	1601.51
744.21	1695.72
744.40	1613.80
744.59	1599.46
744.77	1593.32
744.96	1740.77
745.14	1615.85
745.33	1701.86
745.51	1736.68
745.70	1648.61
745.88	1734.63
746.07	1587.18
746.26	1716.20
746.44	1650.66
746.63	1556.46
746.81	1716.20
747.00	1800.16
747.18	1630.18
747.37	1673.19
747.55	1718.25
747.74	1908.71
747.92	1681.38
748.11	1675.24
748.29	1644.52
748.48	1708.01
748.66	1714.15
748.85	1660.90
749.03	1665.00
749.22	1671.14
749.41	1626.09
749.59	1804.26
749.78	1644.52
749.96	1593.32
750.15	1693.67
750.33	1726.44
750.52	1708.01
750.70	1652.71
750.89	1769.44
751.07	1581.03
751.26	1650.66
751.44	1626.09
751.63	1712.10
751.81	1669.09
752.00	1624.04
752.18	1685.48
752.37	1675.24
752.55	1548.26
752.74	1605.61
752.92	1740.77
753.10	1716.20
753.29	1644.52
753.47	1671.14
753.66	1544.17
753.84	1650.66
754.03	1656.81
754.21	1667.05
754.40	1701.86
754.58	1734.63
754.77	1767.40
754.95	1695.72
755.14	1683.43
755.32	1693.67
755.51	1578.98
755.69	1667.05
755.88	1615.85
756.06	1804.26
756.24	1671.14
756.43	1665.00
756.61	1679.33
756.80	1615.85
756.98	1673.19
757.17	1699.81
757.35	1683.43
757.54	1640.42
757.72	1728.49
757.90	1564.65
758.09	1634.28
758.27	1642.47
758.46	1656.81
758.64	1748.97
758.83	1658.85
759.01	1779.68
759.19	1693.67
759.38	1679.33
759.56	1742.82
759.75	1665.00
759.93	1685.48
760.12	1626.09
760.30	1703.91
760.48	1675.24
760.67	1677.29
760.85	1652.71
761.04	1619.94
761.22	1738.73
761.40	1720.29
761.59	1673.19
761.77	1671.14
761.96	1628.14
762.14	1699.81
762.32	1689.57
762.51	1683.43
762.69	1591.27
762.88	1675.24
763.06	1658.85
763.24	1611.75
763.43	1605.61
763.61	1693.67
763.80	1699.81
763.98	1646.57
764.16	1621.99
764.35	1615.85
764.53	1572.84
764.72	1617.90
764.90	1740.77
765.08	1660.90
765.27	1699.81
765.45	1734.63
765.63	1624.04
765.82	1640.42
766.00	1665.00
766.18	1673.19
766.37	1708.01
766.55	1597.42
766.74	1687.53
766.92	1675.24
767.10	1648.61
767.29	1701.86
767.47	1632.23
767.65	1697.77
767.84	1656.81
768.02	1757.16
768.20	1685.48
768.39	1656.81
768.57	1550.31
768.75	1671.14
768.94	1757.16
769.12	1699.81
769.30	1640.42
769.49	1683.43
769.67	1609.70
769.85	1863.65
770.04	1679.33
770.22	1550.31
770.40	1740.77
770.59	1658.85
770.77	1708.01
770.95	1658.85
771.14	1667.05
771.32	1691.62
771.50	1597.42
771.69	1574.89
771.87	1607.66
772.05	1691.62
772.24	1630.18
772.42	1730.53
772.60	1679.33
772.78	1683.43
772.97	1587.18
773.15	1724.39
773.33	1794.02
773.52	1597.42
773.70	1691.62
773.88	1634.28
774.07	1665.00
774.25	1615.85
774.43	1699.81
774.61	1652.71
774.80	1662.95
774.98	1681.38
775.16	1632.23
775.34	1667.05
775.53	1779.68
775.71	1669.09
775.89	1738.73
776.08	1660.90
776.26	1609.70
776.44	1742.82
776.62	1603.56
776.81	1632.23
776.99	1675.24
777.17	1779.68
777.35	1681.38
777.54	1722.34
777.72	1734.63
777.90	1646.57
778.08	1638.38
778.27	1617.90
778.45	1603.56
778.63	1630.18
778.81	1679.33
779.00	1720.29
779.18	1683.43
779.36	1720.29
779.54	1685.48
779.73	1658.85
779.91	1595.37
780.09	1665.00
780.27	1665.00
780.46	1675.24
780.64	1636.33
780.82	1667.05
781.00	1634.28
781.19	1603.56
781.37	1681.38
781.55	1787.88
781.73	1705.96
781.91	1646.57
782.10	1687.53
782.28	1767.40
782.46	1624.04
782.64	1687.53
782.82	1736.68
783.01	1619.94
783.19	1759.21
783.37	1730.53
783.55	1681.38
783.74	1673.19
783.92	1572.84
784.10	1708.01
784.28	1634.28
784.46	1720.29
784.64	1572.84
784.83	1662.95
785.01	1839.08
785.19	1798.12
785.37	1652.71
785.55	1568.74
785.74	1624.04
785.92	1632.23
786.10	1681.38
786.28	1837.03
786.46	1648.61
786.64	1656.81
786.83	1667.05
787.01	1683.43
787.19	1761.25
787.37	1789.92
787.55	1695.72
787.74	1593.32
787.92	1708.01
788.10	1712.10
788.28	1619.94
788.46	1667.05
788.64	1763.30
788.82	1740.77
789.01	1689.57
789.19	1742.82
789.37	1662.95
789.55	1660.90
789.73	1630.18
789.91	1621.99
790.09	1697.77
790.28	1617.90
790.46	1603.56
790.64	1708.01
790.82	1632.23
791.00	1599.46
791.18	1724.39
791.36	1701.86
791.55	1656.81
791.73	1646.57
791.91	1624.04
792.09	1697.77
792.27	1570.79
792.45	1658.85
792.63	1695.72
792.81	1728.49
793.00	1654.76
793.18	1726.44
793.36	1794.02
793.54	1708.01
793.72	1650.66
793.90	1589.22
794.08	1607.66
794.26	1679.33
794.44	1529.83
794.62	1638.38
794.81	1533.93
794.99	1708.01
795.17	1687.53
795.35	1705.96
795.53	1691.62
795.71	1660.90
795.89	1656.81
796.07	1634.28
796.25	1652.71
796.43	1757.16
796.61	1626.09
796.80	1665.00
796.98	1652.71
797.16	1740.77
797.34	1662.95
797.52	1628.14
797.70	1734.63
797.88	1773.54
798.06	1595.37
798.24	1662.95
798.42	1658.85
798.60	1662.95
798.78	1662.95
798.96	1701.86
799.14	1673.19
799.32	1753.06
799.51	1591.27
799.69	1744.87
799.87	1716.20
800.05	1689.57
800.23	1591.27
800.41	1628.14
800.59	1652.71
800.77	1665.00
800.95	1531.88
801.13	1708.01
801.31	1667.05
801.49	1771.49
801.67	1617.90
801.85	1644.52
802.03	1687.53
802.21	1658.85
802.39	1658.85
802.57	1712.10
802.75	1703.91
802.93	1781.73
803.11	1535.98
803.29	1724.39
803.47	1687.53
803.65	1703.91
803.83	1662.95
804.01	1673.19
804.19	1697.77
804.37	1671.14
804.55	1626.09
804.73	1662.95
804.91	1644.52
805.09	1748.97
805.27	1695.72
805.45	1712.10
805.63	1617.90
805.81	1675.24
805.99	1603.56
806.17	1658.85
806.35	1583.08
806.53	1695.72
806.71	1708.01
806.89	1650.66
807.07	1673.19
807.25	1716.20
807.43	1599.46
807.61	1785.83
807.79	1636.33
807.97	1679.33
808.15	1689.57
808.33	1724.39
808.51	1748.97
808.69	1716.20
808.87	1624.04
809.05	1656.81
809.23	1607.66
809.41	1605.61
809.59	1634.28
809.77	1748.97
809.95	1695.72
810.13	1699.81
810.31	1732.58
810.49	1642.47
810.67	1693.67
810.84	1654.76
811.02	1693.67
811.20	1662.95
811.38	1773.54
811.56	1636.33
811.74	1634.28
811.92	1626.09
812.10	1681.38
812.28	1732.58
812.46	1720.29
812.64	1699.81
812.82	1613.80
813.00	1665.00
813.18	1671.14
813.36	1683.43
813.53	1736.68
813.71	1757.16
813.89	1646.57
814.07	1683.43
814.25	1701.86
814.43	1691.62
814.61	1568.74
814.79	1677.29
814.97	1685.48
815.15	1736.68
815.33	1605.61
815.50	1691.62
815.68	1607.66
815.86	1730.53
816.04	1703.91
816.22	1621.99
816.40	1714.15
816.58	1677.29
816.76	1576.94
816.94	1712.10
817.11	1656.81
817.29	1650.66
817.47	1642.47
817.65	1648.61
817.83	1687.53
818.01	1576.94
818.19	1599.46
818.37	1665.00
818.54	1705.96
818.72	1675.24
818.90	1681.38
819.08	1587.18
819.26	1740.77
819.44	1683.43
819.62	1681.38
819.80	1660.90
819.97	1718.25
820.15	1662.95
820.33	1597.42
820.51	1654.76
820.69	1650.66
820.87	1687.53
821.05	1714.15
821.22	1640.42
821.40	1740.77
821.58	1624.04
821.76	1708.01
821.94	1628.14
822.12	1665.00
822.29	1650.66
822.47	1607.66
822.65	1654.76
822.83	1581.03
823.01	1642.47
823.19	1689.57
823.36	1683.43
823.54	1591.27
823.72	1693.67
823.90	1734.63
824.08	1646.57
824.25	1621.99
824.43	1699.81
824.61	1509.35
824.79	1697.77
824.97	1636.33
825.15	1691.62
825.32	1615.85
825.50	1654.76
825.68	1587.18
825.86	1687.53
826.04	1595.37
826.21	1699.81
826.39	1642.47
826.57	1724.39
826.75	1753.06
826.93	1677.29
827.10	1673.19
827.28	1648.61
827.46	1708.01
827.64	1619.94
827.81	1603.56
827.99	1615.85
828.17	1531.88
828.35	1597.42
828.53	1587.18
828.70	1705.96
828.88	1642.47
829.06	1611.75
829.24	1675.24
829.41	1740.77
829.59	1791.97
829.77	1636.33
829.95	1705.96
830.12	1619.94
830.30	1716.20
830.48	1656.81
830.66	1630.18
830.84	1628.14
831.01	1703.91
831.19	1667.05
831.37	1675.24
831.55	1652.71
831.72	1685.48
831.90	1642.47
832.08	1716.20
832.25	1658.85
832.43	1642.47
832.61	1722.34
832.79	1572.84
832.96	1720.29
833.14	1708.01
833.32	1738.73
833.50	1597.42
833.67	1714.15
833.85	1578.98
834.03	1591.27
834.20	1689.57
834.38	1695.72
834.56	1658.85
834.74	1638.38
834.91	1628.14
835.09	1683.43
835.27	1640.42
835.44	1789.92
835.62	1667.05
835.80	1662.95
835.98	1605.61
836.15	1609.70
836.33	1632.23
836.51	1640.42
836.68	1587.18
836.86	1652.71
837.04	1765.35
837.21	1759.21
837.39	1662.95
837.57	1699.81
837.75	1736.68
837.92	1687.53
838.10	1609.70
838.28	1591.27
838.45	1617.90
838.63	1630.18
838.81	1773.54
838.98	1634.28
839.16	1660.90
839.34	1656.81
839.51	1632.23
839.69	1632.23
839.87	1609.70
840.04	1689.57
840.22	1912.80
840.40	1630.18
840.57	1605.61
840.75	1642.47
840.93	1601.51
841.10	1607.66
841.28	1734.63
841.46	1638.38
841.63	1671.14
841.81	1634.28
841.98	1556.46
842.16	1757.16
842.34	1613.80
842.51	1597.42
842.69	1675.24
842.87	1699.81
843.04	1703.91
843.22	1617.90
843.40	1665.00
843.57	1599.46
843.75	1607.66
843.92	1679.33
844.10	1683.43
844.28	1654.76
844.45	1548.26
844.63	1699.81
844.81	1732.58
844.98	1740.77
845.16	1677.29
845.33	1662.95
845.51	1578.98
845.69	1601.51
845.86	1748.97
846.04	1587.18
846.21	1681.38
846.39	1644.52
846.57	1646.57
846.74	1628.14
846.92	1675.24
847.09	1550.31
847.27	1658.85
847.45	1628.14
847.62	1681.38
847.80	1636.33
847.97	1626.09
848.15	1644.52
848.32	1611.75
848.50	1669.09
848.68	1665.00
848.85	1679.33
849.03	1560.55
849.20	1603.56
849.38	1593.32
849.56	1617.90
849.73	1605.61
849.91	1736.68
850.08	1685.48
850.26	1585.13
850.43	1632.23
850.61	1757.16
850.78	1560.55
850.96	1677.29
851.14	1587.18
851.31	1767.40
851.49	1681.38
851.66	1660.90
851.84	1535.98
852.01	1681.38
852.19	1697.77
852.36	1624.04
852.54	1679.33
852.71	1583.08
852.89	1679.33
853.07	1603.56
853.24	1665.00
853.42	1630.18
853.59	1634.28
853.77	1646.57
853.94	1621.99
854.12	1787.88
854.29	1538.02
854.47	1658.85
854.64	1613.80
854.82	1744.87
854.99	1712.10
855.17	1630.18
855.34	1548.26
855.52	1656.81
855.69	1695.72
855.87	1675.24
856.04	1693.67
856.22	1673.19
856.39	1621.99
856.57	1728.49
856.74	1673.19
856.92	1744.87
857.09	1644.52
857.27	1665.00
857.44	1652.71
857.62	1722.34
857.79	1591.27
857.97	1638.38
858.14	1621.99
858.32	1597.42
858.49	1640.42
858.67	1662.95
858.84	1683.43
859.02	1744.87
859.19	1757.16
859.37	1650.66
859.54	1550.31
859.72	1675.24
859.89	1630.18
860.06	1495.02
860.24	1611.75
860.41	1695.72
860.59	1656.81
860.76	1632.23
860.94	1566.70
861.11	1640.42
861.29	1632.23
861.46	1542.12
861.64	1669.09
861.81	1667.05
861.98	1679.33
862.16	1658.85
862.33	1574.89
862.51	1667.05
862.68	1650.66
862.86	1603.56
863.03	1646.57
863.21	1665.00
863.38	1681.38
863.55	1535.98
863.73	1691.62
863.90	1634.28
864.08	1564.65
864.25	1628.14
864.43	1665.00
864.60	1691.62
864.77	1576.94
864.95	1626.09
865.12	1558.50
865.30	1644.52
865.47	1744.87
865.64	1681.38
865.82	1646.57
865.99	1761.25
866.17	1677.29
866.34	1746.92
866.51	1521.64
866.69	1593.32
866.86	1785.83
867.04	1703.91
867.21	1736.68
867.38	1638.38
867.56	1677.29
867.73	1619.94
867.91	1679.33
868.08	1648.61
868.25	1648.61
868.43	1654.76
868.60	1617.90
868.78	1560.55
868.95	1736.68
869.12	1675.24
869.30	1638.38
869.47	1703.91
869.64	1662.95
869.82	1591.27
869.99	1708.01
870.16	1681.38
870.34	1675.24
870.51	1751.01
870.69	1587.18
870.86	1697.77
871.03	1693.67
871.21	1597.42
871.38	1703.91
871.55	1695.72
871.73	1626.09
871.90	1656.81
872.07	1578.98
872.25	1613.80
872.42	1558.50
872.59	1642.47
872.77	1642.47
872.94	1617.90
873.11	1640.42
873.29	1697.77
873.46	1720.29
873.63	1630.18
873.81	1593.32
873.98	1732.58
874.15	1601.51
874.33	1638.38
874.50	1644.52
874.67	1667.05
874.85	1605.61
875.02	1734.63
875.19	1656.81
875.37	1675.24
875.54	1583.08
875.71	1708.01
875.88	1658.85
876.06	1638.38
876.23	1662.95
876.40	1630.18
876.58	1669.09
876.75	1621.99
876.92	1621.99
877.10	1552.36
877.27	1665.00
877.44	1671.14
877.61	1538.02
877.79	1662.95
877.96	1667.05
878.13	1589.22
878.31	1650.66
878.48	1716.20
878.65	1718.25
878.82	1544.17
879.00	1638.38
879.17	1648.61
879.34	1667.05
879.51	1630.18
879.69	1617.90
879.86	1542.12
880.03	1603.56
880.21	1636.33
880.38	1611.75
880.55	1714.15
880.72	1656.81
880.90	1619.94
881.07	1558.50
881.24	1687.53
881.41	1556.46
881.59	1638.38
881.76	1673.19
881.93	1732.58
882.10	1597.42
882.28	1617.90
882.45	1724.39
882.62	1609.70
882.79	1601.51
882.96	1562.60
883.14	1654.76
883.31	1712.10
883.48	1597.42
883.65	1671.14
883.83	1638.38
884.00	1679.33
884.17	1669.09
884.34	1624.04
884.51	1593.32
884.69	1621.99
884.86	1609.70
885.03	1728.49
885.20	1558.50
885.38	1665.00
885.55	1611.75
885.72	1648.61
885.89	1556.46
886.06	1658.85
886.24	1544.17
886.41	1570.79
886.58	1646.57
886.75	1730.53
886.92	1544.17
887.10	1646.57
887.27	1628.14
887.44	1722.34
887.61	1732.58
887.78	1751.01
887.95	1697.77
888.13	1703.91
888.30	1662.95
888.47	1665.00
888.64	1615.85
888.81	1667.05
888.99	1544.17
889.16	1658.85
889.33	1576.94
889.50	1705.96
889.67	1624.04
889.84	1638.38
890.01	1812.45
890.19	1691.62
890.36	1636.33
890.53	1673.19
890.70	1654.76
890.87	1652.71
891.04	1554.41
891.22	1705.96
891.39	1587.18
891.56	1710.05
891.73	1654.76
891.90	1636.33
892.07	1533.93
892.24	1658.85
892.42	1585.13
892.59	1570.79
892.76	1722.34
892.93	1632.23
893.10	1640.42
893.27	1705.96
893.44	1566.70
893.61	1644.52
893.79	1716.20
893.96	1660.90
894.13	1708.01
894.30	1640.42
894.47	1757.16
894.64	1761.25
894.81	1576.94
894.98	1597.42
895.15	1777.64
895.33	1642.47
895.50	1662.95
895.67	1611.75
895.84	1576.94
896.01	1652.71
896.18	1574.89
896.35	1716.20
896.52	1609.70
896.69	1605.61
896.86	1757.16
897.04	1703.91
897.21	1673.19
897.38	1654.76
897.55	1630.18
897.72	1714.15
897.89	1671.14
898.06	1656.81
898.23	1550.31
898.40	1644.52
898.57	1726.44
898.74	1671.14
898.91	1564.65
899.08	1540.07
899.26	1687.53
899.43	1691.62
899.60	1654.76
899.77	1691.62
899.94	1613.80
900.11	1652.71
900.28	1642.47
900.45	1624.04
900.62	1621.99
900.79	1671.14
900.96	1652.71
901.13	1673.19
901.30	1634.28
901.47	1576.94
901.64	1662.95
901.81	1751.01
901.98	1646.57
902.15	1681.38
902.32	1529.83
902.49	1628.14
902.66	1718.25
902.83	1656.81
903.01	1630.18
903.18	1636.33
903.35	1632.23
903.52	1652.71
903.69	1656.81
903.86	1679.33
904.03	1615.85
904.20	1687.53
904.37	1734.63
904.54	1564.65
904.71	1644.52
904.88	1540.07
905.05	1583.08
905.22	1581.03
905.39	1601.51
905.56	1621.99
905.73	1572.84
905.90	1669.09
906.07	1662.95
906.24	1710.05
906.41	1693.67
906.58	1685.48
906.75	1636.33
906.92	1609.70
907.09	1621.99
907.26	1665.00
907.43	1554.41
907.60	1564.65
907.77	1660.90
907.93	1699.81
908.10	1624.04
908.27	1701.86
908.44	1646.57
908.61	1583.08
908.78	1630.18
908.95	1730.53
909.12	1667.05
909.29	1673.19
909.46	1650.66
909.63	1730.53
909.80	1669.09
909.97	1720.29
910.14	1650.66
910.31	1611.75
910.48	1654.76
910.65	1511.40
910.82	1615.85
910.99	1679.33
911.16	1621.99
911.33	1628.14
911.50	1669.09
911.66	1634.28
911.83	1673.19
912.00	1568.74
912.17	1505.26
912.34	1533.93
912.51	1632.23
912.68	1613.80
912.85	1669.09
913.02	1669.09
913.19	1542.12
913.36	1648.61
913.53	1695.72
913.70	1634.28
913.86	1804.26
914.03	1691.62
914.20	1644.52
914.37	1632.23
914.54	1673.19
914.71	1689.57
914.88	1685.48
915.05	1624.04
915.22	1654.76
915.39	1658.85
915.55	1652.71
915.72	1568.74
915.89	1578.98
916.06	1650.66
916.23	1648.61
916.40	1626.09
916.57	1583.08
916.74	1669.09
916.91	1658.85
917.07	1581.03
917.24	1617.90
917.41	1662.95
917.58	1665.00
917.75	1597.42
917.92	1615.85
918.09	1597.42
918.26	1646.57
918.42	1708.01
918.59	1708.01
918.76	1566.70
918.93	1601.51
919.10	1638.38
919.27	1648.61
919.44	1734.63
919.60	1617.90
919.77	1701.86
919.94	1601.51
920.11	1626.09
920.28	1787.88
920.45	1560.55
920.61	1517.54
920.78	1673.19
920.95	1744.87
921.12	1689.57
921.29	1591.27
921.46	1611.75
921.62	1583.08
921.79	1642.47
921.96	1607.66
922.13	1742.82
922.30	1679.33
922.47	1636.33
922.63	1667.05
922.80	1652.71
922.97	1581.03
923.14	1527.78
923.31	1570.79
923.47	1654.76
923.64	1765.35
923.81	1589.22
923.98	1654.76
924.15	1550.31
924.32	1687.53
924.48	1685.48
924.65	1796.07
924.82	1529.83
924.99	1576.94
925.15	1552.36
925.32	1761.25
925.49	1617.90
925.66	1710.05
925.83	1568.74
925.99	1593.32
926.16	1728.49
926.33	1662.95
926.50	1564.65
926.67	1642.47
926.83	1568.74
927.00	1652.71
927.17	1642.47
927.34	1609.70
927.50	1658.85
927.67	1853.41
927.84	1753.06
928.01	1581.03
928.17	1648.61
928.34	1716.20
928.51	1671.14
928.68	1662.95
928.84	1675.24
929.01	1591.27
929.18	1589.22
929.35	1605.61
929.51	1662.95
929.68	1630.18
929.85	1658.85
930.02	1662.95
930.18	1681.38
930.35	1642.47
930.52	1642.47
930.69	1626.09
930.85	1644.52
931.02	1556.46
931.19	1615.85
931.36	1642.47
931.52	1646.57
931.69	1630.18
931.86	1599.46
932.02	1640.42
932.19	1648.61
932.36	1683.43
932.53	1642.47
932.69	1597.42
932.86	1804.26
933.03	1650.66
933.19	1550.31
933.36	1699.81
933.53	1748.97
933.70	1656.81
933.86	1714.15
934.03	1716.20
934.20	1619.94
934.36	1728.49
934.53	1624.04
934.70	1587.18
934.86	1662.95
935.03	1605.61
935.20	1650.66
935.36	1578.98
935.53	1576.94
935.70	1597.42
935.86	1662.95
936.03	1527.78
936.20	1566.70
936.36	1624.04
936.53	1640.42
936.70	1658.85
936.86	1789.92
937.03	1691.62
937.20	1576.94
937.36	1705.96
937.53	1521.64
937.70	1589.22
937.86	1581.03
938.03	1656.81
938.20	1751.01
938.36	1632.23
938.53	1650.66
938.70	1642.47
938.86	1603.56
939.03	1595.37
939.20	1628.14
939.36	1671.14
939.53	1654.76
939.70	1849.32
939.86	1601.51
940.03	1652.71
940.19	1542.12
940.36	1665.00
940.53	1636.33
940.69	1619.94
940.86	1728.49
941.03	1599.46
941.19	1535.98
941.36	1681.38
941.52	1720.29
941.69	1728.49
941.86	1609.70
942.02	1679.33
942.19	1724.39
942.35	1720.29
942.52	1675.24
942.69	1675.24
942.85	1654.76
943.02	1593.32
943.18	1679.33
943.35	1603.56
943.52	1658.85
943.68	1611.75
943.85	1665.00
944.01	1585.13
944.18	1705.96
944.35	1728.49
944.51	1617.90
944.68	1593.32
944.84	1642.47
945.01	1544.17
945.17	1632.23
945.34	1607.66
945.51	1630.18
945.67	1650.66
945.84	1632.23
946.00	1591.27
946.17	1716.20
946.33	1617.90
946.50	1736.68
946.67	1695.72
946.83	1660.90
947.00	1662.95
947.16	1683.43
947.33	1648.61
947.49	1585.13
947.66	1499.11
947.82	1705.96
947.99	1581.03
948.16	1681.38
948.32	1640.42
948.49	1675.24
948.65	1689.57
948.82	1656.81
948.98	1658.85
949.15	1574.89
949.31	1691.62
949.48	1646.57
949.64	1597.42
949.81	1525.74
949.97	1593.32
950.14	1757.16
950.30	1562.60
950.47	1644.52
950.63	1591.27
950.80	1624.04
950.96	1558.50
951.13	1673.19
951.30	1671.14
951.46	1675.24
951.63	1701.86
951.79	1662.95
951.96	1734.63
952.12	1626.09
952.29	1640.42
952.45	1515.50
952.62	1576.94
952.78	1634.28
952.94	1673.19
953.11	1716.20
953.27	1529.83
953.44	1744.87
953.60	1583.08
953.77	1669.09
953.93	1728.49
954.10	1585.13
954.26	1621.99
954.43	1667.05
954.59	1685.48
954.76	1777.64
954.92	1601.51
955.09	1591.27
955.25	1601.51
955.42	1552.36
955.58	1632.23
955.75	1578.98
955.91	1519.59
956.07	1673.19
956.24	1677.29
956.40	1667.05
956.57	1617.90
956.73	1576.94
956.90	1665.00
957.06	1658.85
957.23	1685.48
957.39	1583.08
957.56	1562.60
957.72	1535.98
957.88	1558.50
958.05	1652.71
958.21	1687.53
958.38	1667.05
958.54	1583.08
958.71	1697.77
958.87	1581.03
959.03	1621.99
959.20	1654.76
959.36	1546.22
959.53	1634.28
959.69	1527.78
959.85	1632.23
960.02	1546.22
960.18	1636.33
960.35	1611.75
960.51	1656.81
960.68	1591.27
960.84	1595.37
961.00	1576.94
961.17	1568.74
961.33	1611.75
961.50	1589.22
961.66	1675.24
961.82	1581.03
961.99	1681.38
962.15	1671.14
962.31	1624.04
962.48	1679.33
962.64	1675.24
962.81	1634.28
962.97	1646.57
963.13	1636.33
963.30	1636.33
963.46	1597.42
963.62	1568.74
963.79	1568.74
963.95	1597.42
964.12	1593.32
964.28	1677.29
964.44	1556.46
964.61	1687.53
964.77	1601.51
964.93	1712.10
965.10	1673.19
965.26	1607.66
965.42	1591.27
965.59	1617.90
965.75	1630.18
965.92	1748.97
966.08	1626.09
966.24	1689.57
966.41	1615.85
966.57	1644.52
966.73	1658.85
966.90	1648.61
967.06	1671.14
967.22	1587.18
967.39	1603.56
967.55	1570.79
967.71	1556.46
967.88	1583.08
968.04	1628.14
968.20	1630.18
968.37	1648.61
968.53	1634.28
968.69	1597.42
968.85	1658.85
969.02	1703.91
969.18	1669.09
969.34	1640.42
969.51	1658.85
969.67	1656.81
969.83	1591.27
970.00	1697.77
970.16	1675.24
970.32	1644.52
970.48	1669.09
970.65	1687.53
970.81	1646.57
970.97	1613.80
971.14	1497.07
971.30	1675.24
971.46	1621.99
971.63	1679.33
971.79	1656.81
971.95	1656.81
972.11	1617.90
972.28	1703.91
972.44	1675.24
972.60	1585.13
972.76	1662.95
972.93	1658.85
973.09	1642.47
973.25	1648.61
973.42	1595.37
973.58	1689.57
973.74	1728.49
973.90	1673.19
974.07	1681.38
974.23	1609.70
974.39	1665.00
974.55	1630.18
974.72	1558.50
974.88	1603.56
975.04	1640.42
975.20	1595.37
975.37	1642.47
975.53	1613.80
975.69	1687.53
975.85	1585.13
976.01	1603.56
976.18	1611.75
976.34	1597.42
976.50	1712.10
976.66	1703.91
976.83	1550.31
976.99	1634.28
977.15	1677.29
977.31	1535.98
977.47	1679.33
977.64	1703.91
977.80	1617.90
977.96	1611.75
978.12	1603.56
978.29	1679.33
978.45	1546.22
978.61	1554.41
978.77	1703.91
978.93	1589.22
979.10	1646.57
979.26	1529.83
979.42	1646.57
979.58	1611.75
979.74	1568.74
979.91	1636.33
980.07	1611.75
980.23	1624.04
980.39	1564.65
980.55	1603.56
980.71	1550.31
980.88	1581.03
981.04	1628.14
981.20	1701.86
981.36	1685.48
981.52	1587.18
981.68	1572.84
981.85	1662.95
982.01	1693.67
982.17	1624.04
982.33	1638.38
982.49	1628.14
982.65	1642.47
982.82	1644.52
982.98	1605.61
983.14	1513.45
983.30	1673.19
983.46	1675.24
983.62	1695.72
983.79	1568.74
983.95	1640.42
984.11	1507.30
984.27	1583.08
984.43	1609.70
984.59	1630.18
984.75	1675.24
984.91	1619.94
985.08	1626.09
985.24	1603.56
985.40	1581.03
985.56	1531.88
985.72	1685.48
985.88	1669.09
986.04	1576.94
986.20	1511.40
986.37	1576.94
986.53	1630.18
986.69	1593.32
986.85	1601.51
987.01	1578.98
987.17	1705.96
987.33	1638.38
987.49	1574.89
987.65	1617.90
987.82	1548.26
987.98	1640.42
988.14	1662.95
988.30	1632.23
988.46	1558.50
988.62	1617.90
988.78	1642.47
988.94	1574.89
989.10	1607.66
989.26	1589.22
989.42	1658.85
989.59	1583.08
989.75	1556.46
989.91	1685.48
990.07	1605.61
990.23	1658.85
990.39	1681.38
990.55	1634.28
990.71	1632.23
990.87	1626.09
991.03	1640.42
991.19	1587.18
991.35	1572.84
991.51	1634.28
991.67	1613.80
991.83	1597.42
992.00	1554.41
992.16	1609.70
992.32	1685.48
992.48	1689.57
992.64	1546.22
992.80	1679.33
992.96	1624.04
993.12	1675.24
993.28	1701.86
993.44	1634.28
993.60	1624.04
993.76	1679.33
993.92	1632.23
994.08	1712.10
994.24	1626.09
994.40	1566.70
994.56	1662.95
994.72	1648.61
994.88	1617.90
995.04	1638.38
995.20	1607.66
995.36	1585.13
995.52	1701.86
995.68	1593.32
995.84	1556.46
996.00	1703.91
996.16	1648.61
996.32	1562.60
996.48	1630.18
996.64	1748.97
996.80	1589.22
996.96	1660.90
997.12	1621.99
997.28	1619.94
997.44	1540.07
997.60	1591.27
997.76	1574.89
997.92	1617.90
998.08	1658.85
998.24	1544.17
998.40	1665.00
998.56	1728.49
998.72	1552.36
998.88	1513.45
999.04	1599.46
999.20	1624.04
999.36	1527.78
999.52	1716.20
999.68	1634.28
999.84	1632.23
1000.00	1624.04
1000.16	1658.85
1000.32	1607.66
1000.48	1697.77
1000.64	1652.71
1000.80	1595.37
1000.95	1570.79
1001.11	1656.81
1001.27	1613.80
1001.43	1619.94
1001.59	1492.97
1001.75	1599.46
1001.91	1646.57
1002.07	1566.70
1002.23	1613.80
1002.39	1593.32
1002.55	1601.51
1002.71	1585.13
1002.87	1591.27
1003.03	1578.98
1003.19	1607.66
1003.34	1691.62
1003.50	1609.70
1003.66	1673.19
1003.82	1687.53
1003.98	1546.22
1004.14	1599.46
1004.30	1630.18
1004.46	1581.03
1004.62	1599.46
1004.78	1615.85
1004.94	1621.99
1005.09	1617.90
1005.25	1705.96
1005.41	1525.74
1005.57	1552.36
1005.73	1583.08
1005.89	1607.66
1006.05	1673.19
1006.21	1648.61
1006.37	1593.32
1006.52	1617.90
1006.68	1576.94
1006.84	1689.57
1007.00	1568.74
1007.16	1619.94
1007.32	1540.07
1007.48	1581.03
1007.64	1660.90
1007.79	1675.24
1007.95	1613.80
1008.11	1578.98
1008.27	1533.93
1008.43	1681.38
1008.59	1667.05
1008.75	1654.76
1008.91	1636.33
1009.06	1626.09
1009.22	1703.91
1009.38	1654.76
1009.54	1681.38
1009.70	1634.28
1009.86	1597.42
1010.01	1744.87
1010.17	1630.18
1010.33	1718.25
1010.49	1630.18
1010.65	1697.77
1010.81	1578.98
1010.96	1605.61
1011.12	1652.71
1011.28	1548.26
1011.44	1642.47
1011.60	1570.79
1011.76	1482.73
1011.91	1656.81
1012.07	1558.50
1012.23	1503.21
1012.39	1542.12
1012.55	1658.85
1012.71	1605.61
1012.86	1535.98
1013.02	1687.53
1013.18	1628.14
1013.34	1628.14
1013.50	1683.43
1013.65	1673.19
1013.81	1566.70
1013.97	1554.41
1014.13	1597.42
1014.29	1550.31
1014.44	1740.77
1014.60	1615.85
1014.76	1632.23
1014.92	1644.52
1015.07	1665.00
1015.23	1654.76
1015.39	1587.18
1015.55	1593.32
1015.71	1634.28
1015.86	1591.27
1016.02	1578.98
1016.18	1540.07
1016.34	1587.18
1016.49	1581.03
1016.65	1679.33
1016.81	1621.99
1016.97	1628.14
1017.12	1683.43
1017.28	1595.37
1017.44	1607.66
1017.60	1554.41
1017.75	1619.94
1017.91	1644.52
1018.07	1617.90
1018.23	1632.23
1018.38	1554.41
1018.54	1583.08
1018.70	1675.24
1018.86	1507.30
1019.01	1587.18
1019.17	1615.85
1019.33	1726.44
1019.49	1648.61
1019.64	1650.66
1019.80	1710.05
1019.96	1621.99
1020.12	1699.81
1020.27	1570.79
1020.43	1638.38
1020.59	1597.42
1020.74	1642.47
1020.90	1593.32
1021.06	1591.27
1021.22	1589.22
1021.37	1665.00
1021.53	1638.38
1021.69	1714.15
1021.84	1572.84
1022.00	1619.94
1022.16	1603.56
1022.31	1611.75
1022.47	1630.18
1022.63	1665.00
1022.79	1533.93
1022.94	1609.70
1023.10	1615.85
1023.26	1605.61
1023.41	1607.66
1023.57	1570.79
1023.73	1628.14
1023.88	1654.76
1024.04	1675.24
1024.20	1589.22
1024.35	1667.05
1024.51	1583.08
1024.67	1619.94
1024.82	1654.76
1024.98	1585.13
1025.14	1650.66
1025.29	1576.94
1025.45	1728.49
1025.61	1540.07
1025.76	1613.80
1025.92	1642.47
1026.08	1638.38
1026.23	1599.46
1026.39	1667.05
1026.55	1607.66
1026.70	1589.22
1026.86	1564.65
1027.02	1601.51
1027.17	1568.74
1027.33	1695.72
1027.48	1564.65
1027.64	1568.74
1027.80	1601.51
1027.95	1648.61
1028.11	1597.42
1028.27	1626.09
1028.42	1656.81
1028.58	1607.66
1028.73	1552.36
1028.89	1564.65
1029.05	1746.92
1029.20	1597.42
>>>>>End Processed Spectral Data<<<<<
