SpectraSuite Data File
++++++++++++++++++++++++++++++++++++
Date: Fri Jun 02 14:53:27 CEST 2017
User: INFO_000
Dark Spectrum Present: No
Reference Spectrum Present: No
Number of Sampled Component Spectra: 1
Spectrometers: USB4H00879
Integration Time (usec): 80000 (USB4H00879)
Spectra Averaged: 1 (USB4H00879)
Boxcar Smoothing: 0 (USB4H00879)
Correct for Electrical Dark: No (USB4H00879)
Strobe/Lamp Enabled: No (USB4H00879)
Correct for Detector Non-linearity: No (USB4H00879)
Correct for Stray Light: No (USB4H00879)
Number of Pixels in Processed Spectrum: 3648
>>>>>Begin Processed Spectral Data<<<<<
345.13	1304.56
345.34	1304.56
345.56	1304.56
345.78	1269.74
345.99	1288.17
346.21	1658.85
346.42	1691.62
346.64	1628.14
346.86	1789.92
347.07	1656.81
347.29	1703.91
347.50	1611.75
347.72	1732.58
347.94	1808.36
348.15	1544.17
348.37	1615.85
348.59	1636.33
348.80	1621.99
349.02	1724.39
349.23	1746.92
349.45	1687.53
349.67	1685.48
349.88	1728.49
350.10	1798.12
350.31	1708.01
350.53	1673.19
350.75	1859.56
350.96	1638.38
351.18	1710.05
351.39	1714.15
351.61	1624.04
351.82	1814.50
352.04	1779.68
352.26	1646.57
352.47	1730.53
352.69	1724.39
352.90	1595.37
353.12	1693.67
353.34	1730.53
353.55	1796.07
353.77	1689.57
353.98	1656.81
354.20	1691.62
354.41	1722.34
354.63	1781.73
354.85	1863.65
355.06	1757.16
355.28	1617.90
355.49	1710.05
355.71	1777.64
355.92	1773.54
356.14	1867.75
356.35	1677.29
356.57	1603.56
356.79	1753.06
357.00	1662.95
357.22	1810.40
357.43	1650.66
357.65	1812.45
357.86	1705.96
358.08	1751.01
358.29	1763.30
358.51	1791.97
358.72	1773.54
358.94	1687.53
359.16	1712.10
359.37	1777.64
359.59	1714.15
359.80	1748.97
360.02	1748.97
360.23	1691.62
360.45	1789.92
360.66	1708.01
360.88	1609.70
361.09	1687.53
361.31	1722.34
361.52	1728.49
361.74	1771.49
361.95	1806.31
362.17	1621.99
362.38	1783.78
362.60	1714.15
362.81	1744.87
363.03	1648.61
363.24	1734.63
363.46	1771.49
363.67	1738.73
363.89	1748.97
364.10	1734.63
364.32	1689.57
364.53	1728.49
364.75	1605.61
364.96	1716.20
365.18	1740.77
365.39	1732.58
365.61	1660.90
365.82	1755.11
366.04	1724.39
366.25	1603.56
366.47	1753.06
366.68	1687.53
366.90	1699.81
367.11	1796.07
367.33	1773.54
367.54	1728.49
367.76	1656.81
367.97	1787.88
368.19	1673.19
368.40	1738.73
368.62	1662.95
368.83	1675.24
369.05	1667.05
369.26	1746.92
369.48	1646.57
369.69	1617.90
369.91	1740.77
370.12	1705.96
370.33	1714.15
370.55	1621.99
370.76	1746.92
370.98	1689.57
371.19	1697.77
371.41	1732.58
371.62	1697.77
371.84	1642.47
372.05	1804.26
372.27	1753.06
372.48	1650.66
372.69	1675.24
372.91	1730.53
373.12	1775.59
373.34	1683.43
373.55	1695.72
373.77	1710.05
373.98	1734.63
374.20	1841.12
374.41	1802.21
374.62	1699.81
374.84	1658.85
375.05	1710.05
375.27	1728.49
375.48	1718.25
375.70	1675.24
375.91	1710.05
376.12	1859.56
376.34	1669.09
376.55	1687.53
376.77	1716.20
376.98	1576.94
377.19	1753.06
377.41	1642.47
377.62	1773.54
377.84	1691.62
378.05	1871.84
378.27	1740.77
378.48	1681.38
378.69	1869.80
378.91	1798.12
379.12	1691.62
379.34	1753.06
379.55	1824.74
379.76	1722.34
379.98	1695.72
380.19	1785.83
380.41	1691.62
380.62	1720.29
380.83	1679.33
381.05	1673.19
381.26	1753.06
381.47	1705.96
381.69	1769.44
381.90	1800.16
382.12	1695.72
382.33	1667.05
382.54	1677.29
382.76	1767.40
382.97	1708.01
383.19	1665.00
383.40	1794.02
383.61	1683.43
383.83	1605.61
384.04	1636.33
384.25	1718.25
384.47	1859.56
384.68	1724.39
384.89	1624.04
385.11	1638.38
385.32	1673.19
385.54	1615.85
385.75	1648.61
385.96	1652.71
386.18	1673.19
386.39	1753.06
386.60	1568.74
386.82	1736.68
387.03	1673.19
387.24	1765.35
387.46	1722.34
387.67	1714.15
387.88	1744.87
388.10	1683.43
388.31	1673.19
388.52	1740.77
388.74	1761.25
388.95	1675.24
389.16	1785.83
389.38	1654.76
389.59	1746.92
389.80	1753.06
390.02	1687.53
390.23	1697.77
390.44	1681.38
390.66	1654.76
390.87	1626.09
391.08	1673.19
391.30	1814.50
391.51	1818.60
391.72	1769.44
391.94	1771.49
392.15	1638.38
392.36	1634.28
392.58	1716.20
392.79	1757.16
393.00	1677.29
393.22	1691.62
393.43	1724.39
393.64	1798.12
393.85	1763.30
394.07	1654.76
394.28	1708.01
394.49	1763.30
394.71	1712.10
394.92	1812.45
395.13	1621.99
395.35	1710.05
395.56	1671.14
395.77	1796.07
395.98	1683.43
396.20	1679.33
396.41	1728.49
396.62	1812.45
396.84	1779.68
397.05	1638.38
397.26	1677.29
397.47	1791.97
397.69	1617.90
397.90	1900.52
398.11	1783.78
398.32	1574.89
398.54	1697.77
398.75	1669.09
398.96	1746.92
399.18	1779.68
399.39	1720.29
399.60	1732.58
399.81	1642.47
400.03	1634.28
400.24	1908.71
400.45	1718.25
400.66	1738.73
400.88	1621.99
401.09	1918.95
401.30	1665.00
401.51	1802.21
401.73	1744.87
401.94	1794.02
402.15	1671.14
402.36	1763.30
402.58	1681.38
402.79	1765.35
403.00	1736.68
403.21	1769.44
403.43	1736.68
403.64	1765.35
403.85	1667.05
404.06	1728.49
404.27	1644.52
404.49	1703.91
404.70	1685.48
404.91	1748.97
405.12	1712.10
405.34	1746.92
405.55	1783.78
405.76	1589.22
405.97	1648.61
406.19	1800.16
406.40	1607.66
406.61	1787.88
406.82	1718.25
407.03	1738.73
407.25	1703.91
407.46	1841.12
407.67	1714.15
407.88	1794.02
408.09	1781.73
408.31	1656.81
408.52	1734.63
408.73	1648.61
408.94	1650.66
409.15	1718.25
409.37	1785.83
409.58	1796.07
409.79	1755.11
410.00	1851.36
410.21	1712.10
410.43	1685.48
410.64	1576.94
410.85	1742.82
411.06	1658.85
411.27	1710.05
411.48	1783.78
411.70	1751.01
411.91	1732.58
412.12	1732.58
412.33	1783.78
412.54	1609.70
412.76	1748.97
412.97	1855.46
413.18	1716.20
413.39	1748.97
413.60	1726.44
413.81	1695.72
414.03	1621.99
414.24	1712.10
414.45	1851.36
414.66	1634.28
414.87	1646.57
415.08	1648.61
415.30	1712.10
415.51	1732.58
415.72	1736.68
415.93	1675.24
416.14	1720.29
416.35	1701.86
416.56	1771.49
416.78	1691.62
416.99	1740.77
417.20	1785.83
417.41	1777.64
417.62	1654.76
417.83	1685.48
418.04	1779.68
418.26	1806.31
418.47	1777.64
418.68	1662.95
418.89	1794.02
419.10	1880.04
419.31	1751.01
419.52	1734.63
419.73	1722.34
419.95	1724.39
420.16	1626.09
420.37	1693.67
420.58	1691.62
420.79	1609.70
421.00	1662.95
421.21	1730.53
421.42	1658.85
421.63	1665.00
421.85	1640.42
422.06	1599.46
422.27	1728.49
422.48	1724.39
422.69	1724.39
422.90	1697.77
423.11	1650.66
423.32	1777.64
423.53	1841.12
423.75	1634.28
423.96	1712.10
424.17	1757.16
424.38	1804.26
424.59	1722.34
424.80	1716.20
425.01	1658.85
425.22	1533.93
425.43	1765.35
425.64	1732.58
425.85	1738.73
426.06	1787.88
426.28	1640.42
426.49	1615.85
426.70	1619.94
426.91	1787.88
427.12	1744.87
427.33	1724.39
427.54	1703.91
427.75	1720.29
427.96	1849.32
428.17	1695.72
428.38	1691.62
428.59	1755.11
428.80	1687.53
429.01	1689.57
429.23	1634.28
429.44	1632.23
429.65	1753.06
429.86	1716.20
430.07	1699.81
430.28	1638.38
430.49	1728.49
430.70	1679.33
430.91	1837.03
431.12	1638.38
431.33	1703.91
431.54	1820.64
431.75	1714.15
431.96	1740.77
432.17	1665.00
432.38	1708.01
432.59	1800.16
432.80	1789.92
433.01	1667.05
433.22	1703.91
433.43	1695.72
433.64	1716.20
433.85	1806.31
434.06	1712.10
434.27	1658.85
434.49	1560.55
434.70	1732.58
434.91	1708.01
435.12	1669.09
435.33	1753.06
435.54	1691.62
435.75	1624.04
435.96	1673.19
436.17	1765.35
436.38	1669.09
436.59	1761.25
436.80	1599.46
437.01	1777.64
437.22	1806.31
437.43	1687.53
437.64	1681.38
437.85	1746.92
438.06	1742.82
438.27	1679.33
438.48	1716.20
438.69	1722.34
438.90	1638.38
439.11	1644.52
439.32	1791.97
439.53	1675.24
439.74	1607.66
439.95	1708.01
440.16	1636.33
440.37	1722.34
440.57	1693.67
440.78	1671.14
440.99	1652.71
441.20	1671.14
441.41	1613.80
441.62	1621.99
441.83	1591.27
442.04	1587.18
442.25	1697.77
442.46	1654.76
442.67	1734.63
442.88	1804.26
443.09	1703.91
443.30	1615.85
443.51	1671.14
443.72	1781.73
443.93	1613.80
444.14	1753.06
444.35	1613.80
444.56	1683.43
444.77	1658.85
444.98	1720.29
445.19	1710.05
445.40	1658.85
445.61	1607.66
445.81	1642.47
446.02	1755.11
446.23	1675.24
446.44	1689.57
446.65	1738.73
446.86	1814.50
447.07	1832.93
447.28	1689.57
447.49	1740.77
447.70	1597.42
447.91	1816.55
448.12	1705.96
448.33	1738.73
448.54	1665.00
448.74	1730.53
448.95	1665.00
449.16	1775.59
449.37	1748.97
449.58	1767.40
449.79	1751.01
450.00	1654.76
450.21	1724.39
450.42	1654.76
450.63	1681.38
450.84	1650.66
451.05	1685.48
451.25	1671.14
451.46	1708.01
451.67	1851.36
451.88	1746.92
452.09	1689.57
452.30	1679.33
452.51	1597.42
452.72	1818.60
452.93	1820.64
453.13	1703.91
453.34	1611.75
453.55	1746.92
453.76	1671.14
453.97	1630.18
454.18	1564.65
454.39	1693.67
454.60	1654.76
454.81	1722.34
455.01	1734.63
455.22	1609.70
455.43	1646.57
455.64	1665.00
455.85	1753.06
456.06	1757.16
456.27	1814.50
456.48	1683.43
456.68	1669.09
456.89	1671.14
457.10	1669.09
457.31	1785.83
457.52	1734.63
457.73	1667.05
457.94	1714.15
458.14	1613.80
458.35	1783.78
458.56	1714.15
458.77	1650.66
458.98	1658.85
459.19	1613.80
459.39	1660.90
459.60	1660.90
459.81	1650.66
460.02	1644.52
460.23	1671.14
460.44	1630.18
460.65	1773.54
460.85	1712.10
461.06	1632.23
461.27	1673.19
461.48	1632.23
461.69	1642.47
461.89	1578.98
462.10	1658.85
462.31	1652.71
462.52	1675.24
462.73	1611.75
462.94	1720.29
463.14	1708.01
463.35	1710.05
463.56	1798.12
463.77	1722.34
463.98	1646.57
464.18	1722.34
464.39	1689.57
464.60	1742.82
464.81	1552.36
465.02	1765.35
465.23	1769.44
465.43	1746.92
465.64	1728.49
465.85	1556.46
466.06	1716.20
466.27	1722.34
466.47	1621.99
466.68	1773.54
466.89	1630.18
467.10	1601.51
467.30	1617.90
467.51	1759.21
467.72	1751.01
467.93	1607.66
468.14	1667.05
468.34	1671.14
468.55	1667.05
468.76	1781.73
468.97	1617.90
469.17	1748.97
469.38	1789.92
469.59	1755.11
469.80	1703.91
470.01	1703.91
470.21	1695.72
470.42	1722.34
470.63	1646.57
470.84	1781.73
471.04	1667.05
471.25	1816.55
471.46	1673.19
471.67	1763.30
471.87	1662.95
472.08	1730.53
472.29	1675.24
472.50	1683.43
472.70	1685.48
472.91	1615.85
473.12	1564.65
473.33	1611.75
473.53	1759.21
473.74	1673.19
473.95	1626.09
474.16	1595.37
474.36	1626.09
474.57	1697.77
474.78	1673.19
474.99	1773.54
475.19	1683.43
475.40	1753.06
475.61	1693.67
475.81	1634.28
476.02	1675.24
476.23	1695.72
476.44	1624.04
476.64	1605.61
476.85	1697.77
477.06	1714.15
477.27	1660.90
477.47	1740.77
477.68	1691.62
477.89	1693.67
478.09	1771.49
478.30	1673.19
478.51	1693.67
478.71	1605.61
478.92	1716.20
479.13	1650.66
479.34	1732.58
479.54	1697.77
479.75	1722.34
479.96	1685.48
480.16	1703.91
480.37	1638.38
480.58	1667.05
480.78	1730.53
480.99	1669.09
481.20	1675.24
481.41	1691.62
481.61	1753.06
481.82	1810.40
482.03	1681.38
482.23	1673.19
482.44	1824.74
482.65	1873.89
482.85	1740.77
483.06	1722.34
483.27	1751.01
483.47	1724.39
483.68	1724.39
483.89	1644.52
484.09	1753.06
484.30	1710.05
484.51	1804.26
484.71	1597.42
484.92	1611.75
485.13	1728.49
485.33	1662.95
485.54	1656.81
485.75	1656.81
485.95	1759.21
486.16	1667.05
486.37	1675.24
486.57	1658.85
486.78	1679.33
486.98	1648.61
487.19	1652.71
487.40	1681.38
487.60	1730.53
487.81	1748.97
488.02	1593.32
488.22	1621.99
488.43	1816.55
488.64	1667.05
488.84	1677.29
489.05	1708.01
489.25	1667.05
489.46	1685.48
489.67	1728.49
489.87	1751.01
490.08	1753.06
490.29	1662.95
490.49	1880.04
490.70	1689.57
490.90	1701.86
491.11	1763.30
491.32	1638.38
491.52	1699.81
491.73	1693.67
491.94	1658.85
492.14	1601.51
492.35	1642.47
492.55	1699.81
492.76	1634.28
492.97	1724.39
493.17	1718.25
493.38	1726.44
493.58	1755.11
493.79	1687.53
494.00	1660.90
494.20	1626.09
494.41	1712.10
494.61	1714.15
494.82	1716.20
495.02	1679.33
495.23	1757.16
495.44	1708.01
495.64	1734.63
495.85	1703.91
496.05	1726.44
496.26	1753.06
496.47	1705.96
496.67	1679.33
496.88	1794.02
497.08	1765.35
497.29	1656.81
497.49	1744.87
497.70	1585.13
497.91	1634.28
498.11	1798.12
498.32	1679.33
498.52	1675.24
498.73	1755.11
498.93	1708.01
499.14	1712.10
499.34	1757.16
499.55	1777.64
499.76	1699.81
499.96	1650.66
500.17	1609.70
500.37	1636.33
500.58	1720.29
500.78	1726.44
500.99	1644.52
501.19	1656.81
501.40	1753.06
501.60	1605.61
501.81	1685.48
502.02	1802.21
502.22	1703.91
502.43	1740.77
502.63	1812.45
502.84	1730.53
503.04	1658.85
503.25	1701.86
503.45	1744.87
503.66	1646.57
503.86	1791.97
504.07	1757.16
504.27	1607.66
504.48	1601.51
504.68	1593.32
504.89	1800.16
505.09	1665.00
505.30	1628.14
505.50	1708.01
505.71	1720.29
505.91	1802.21
506.12	1789.92
506.32	1624.04
506.53	1609.70
506.73	1693.67
506.94	1724.39
507.14	1683.43
507.35	1804.26
507.55	1679.33
507.76	1716.20
507.96	1677.29
508.17	1771.49
508.37	1638.38
508.58	1708.01
508.78	1720.29
508.99	1882.08
509.19	1679.33
509.40	1742.82
509.60	1728.49
509.81	1785.83
510.01	1658.85
510.22	1660.90
510.42	1755.11
510.63	1779.68
510.83	1642.47
511.04	1646.57
511.24	1779.68
511.44	1679.33
511.65	1687.53
511.85	1736.68
512.06	1761.25
512.26	1734.63
512.47	1765.35
512.67	1662.95
512.88	1787.88
513.08	1650.66
513.29	1712.10
513.49	1605.61
513.69	1691.62
513.90	1628.14
514.10	1748.97
514.31	1683.43
514.51	1693.67
514.72	1712.10
514.92	1703.91
515.13	1679.33
515.33	1609.70
515.53	1634.28
515.74	1751.01
515.94	1724.39
516.15	1824.74
516.35	1615.85
516.56	1609.70
516.76	1640.42
516.96	1728.49
517.17	1708.01
517.37	1667.05
517.58	1624.04
517.78	1708.01
517.99	1755.11
518.19	1837.03
518.39	1771.49
518.60	1683.43
518.80	1687.53
519.01	1734.63
519.21	1656.81
519.41	1685.48
519.62	1630.18
519.82	1708.01
520.03	1687.53
520.23	1669.09
520.43	1687.53
520.64	1798.12
520.84	1818.60
521.05	1689.57
521.25	1748.97
521.45	1632.23
521.66	1753.06
521.86	1769.44
522.07	1679.33
522.27	1673.19
522.47	1597.42
522.68	1710.05
522.88	1644.52
523.08	1722.34
523.29	1552.36
523.49	1703.91
523.70	1679.33
523.90	1671.14
524.10	1708.01
524.31	1671.14
524.51	1548.26
524.71	1843.17
524.92	1746.92
525.12	1642.47
525.33	1753.06
525.53	1669.09
525.73	1785.83
525.94	1681.38
526.14	1736.68
526.34	1699.81
526.55	1720.29
526.75	1656.81
526.95	1814.50
527.16	1636.33
527.36	1701.86
527.56	1773.54
527.77	1601.51
527.97	1771.49
528.17	1748.97
528.38	1667.05
528.58	1726.44
528.78	1660.90
528.99	1654.76
529.19	1665.00
529.39	1613.80
529.60	1710.05
529.80	1679.33
530.00	1621.99
530.21	1753.06
530.41	1714.15
530.61	1761.25
530.82	1593.32
531.02	1644.52
531.22	1693.67
531.43	1703.91
531.63	1730.53
531.83	1648.61
532.04	1738.73
532.24	1744.87
532.44	1691.62
532.64	1724.39
532.85	1671.14
533.05	1720.29
533.25	1576.94
533.46	1658.85
533.66	1703.91
533.86	1732.58
534.07	1767.40
534.27	1648.61
534.47	1730.53
534.67	1687.53
534.88	1693.67
535.08	1794.02
535.28	1701.86
535.49	1621.99
535.69	1773.54
535.89	1714.15
536.09	1710.05
536.30	1626.09
536.50	1646.57
536.70	1753.06
536.91	1691.62
537.11	1689.57
537.31	1699.81
537.51	1671.14
537.72	1634.28
537.92	1730.53
538.12	1761.25
538.32	1759.21
538.53	1677.29
538.73	1556.46
538.93	1703.91
539.13	1658.85
539.34	1822.69
539.54	1644.52
539.74	1642.47
539.94	1662.95
540.15	1740.77
540.35	1689.57
540.55	1683.43
540.75	1634.28
540.96	1724.39
541.16	1691.62
541.36	1839.08
541.56	1695.72
541.77	1767.40
541.97	1703.91
542.17	1681.38
542.37	1820.64
542.58	1699.81
542.78	1740.77
542.98	1742.82
543.18	1673.19
543.38	1753.06
543.59	1759.21
543.79	1679.33
543.99	1636.33
544.19	1574.89
544.40	1716.20
544.60	1687.53
544.80	1701.86
545.00	1617.90
545.20	1771.49
545.41	1736.68
545.61	1667.05
545.81	1697.77
546.01	1691.62
546.21	1658.85
546.42	1796.07
546.62	1738.73
546.82	1712.10
547.02	1538.02
547.22	1662.95
547.43	1683.43
547.63	1730.53
547.83	1665.00
548.03	1601.51
548.23	1808.36
548.44	1658.85
548.64	1619.94
548.84	1665.00
549.04	1687.53
549.24	1697.77
549.45	1945.57
549.65	1671.14
549.85	1714.15
550.05	1722.34
550.25	1630.18
550.45	1781.73
550.66	1769.44
550.86	1640.42
551.06	1708.01
551.26	1658.85
551.46	1640.42
551.66	1681.38
551.87	1748.97
552.07	1628.14
552.27	1642.47
552.47	1806.31
552.67	1738.73
552.87	1662.95
553.07	1730.53
553.28	1677.29
553.48	1732.58
553.68	1654.76
553.88	1740.77
554.08	1705.96
554.28	1685.48
554.48	1646.57
554.69	1695.72
554.89	1646.57
555.09	1650.66
555.29	1611.75
555.49	1667.05
555.69	1695.72
555.89	1744.87
556.10	1654.76
556.30	1667.05
556.50	1724.39
556.70	1732.58
556.90	1744.87
557.10	1714.15
557.30	1724.39
557.50	1654.76
557.70	1701.86
557.91	1603.56
558.11	1658.85
558.31	1755.11
558.51	1773.54
558.71	1738.73
558.91	1675.24
559.11	1613.80
559.31	1648.61
559.51	1652.71
559.72	1763.30
559.92	1636.33
560.12	1630.18
560.32	1712.10
560.52	1794.02
560.72	1624.04
560.92	1794.02
561.12	1763.30
561.32	1593.32
561.52	1568.74
561.72	1849.32
561.93	1757.16
562.13	1660.90
562.33	1626.09
562.53	1691.62
562.73	1703.91
562.93	1667.05
563.13	1769.44
563.33	1751.01
563.53	1736.68
563.73	1705.96
563.93	1769.44
564.13	1732.58
564.33	1691.62
564.53	1712.10
564.74	1626.09
564.94	1705.96
565.14	1724.39
565.34	1722.34
565.54	1699.81
565.74	1687.53
565.94	1673.19
566.14	1654.76
566.34	1708.01
566.54	1722.34
566.74	1744.87
566.94	1644.52
567.14	1708.01
567.34	1638.38
567.54	1742.82
567.74	1701.86
567.94	1716.20
568.14	1630.18
568.34	1773.54
568.54	1654.76
568.74	1716.20
568.94	1718.25
569.14	1814.50
569.34	1712.10
569.54	1634.28
569.75	1683.43
569.95	1722.34
570.15	1730.53
570.35	1753.06
570.55	1634.28
570.75	1730.53
570.95	1728.49
571.15	1708.01
571.35	1634.28
571.55	1685.48
571.75	1699.81
571.95	1648.61
572.15	1671.14
572.35	1660.90
572.55	1767.40
572.75	1685.48
572.95	1613.80
573.15	1699.81
573.35	1763.30
573.55	1806.31
573.75	1710.05
573.95	1794.02
574.15	1687.53
574.35	1675.24
574.55	1677.29
574.75	1656.81
574.95	1691.62
575.15	1687.53
575.34	1708.01
575.54	1683.43
575.74	1605.61
575.94	1687.53
576.14	1679.33
576.34	1710.05
576.54	1669.09
576.74	1703.91
576.94	1576.94
577.14	1753.06
577.34	1773.54
577.54	1673.19
577.74	1650.66
577.94	1695.72
578.14	1634.28
578.34	1755.11
578.54	1511.40
578.74	1724.39
578.94	1742.82
579.14	1714.15
579.34	1667.05
579.54	1728.49
579.74	1695.72
579.94	1691.62
580.13	1718.25
580.33	1703.91
580.53	1714.15
580.73	1640.42
580.93	1714.15
581.13	1748.97
581.33	1679.33
581.53	1728.49
581.73	1767.40
581.93	1632.23
582.13	1722.34
582.33	1699.81
582.53	1591.27
582.73	1665.00
582.92	1685.48
583.12	1837.03
583.32	1646.57
583.52	1708.01
583.72	1816.55
583.92	1759.21
584.12	1673.19
584.32	1730.53
584.52	1634.28
584.72	1650.66
584.92	1691.62
585.11	1675.24
585.31	1726.44
585.51	1675.24
585.71	1691.62
585.91	1830.88
586.11	1636.33
586.31	1716.20
586.51	1716.20
586.71	1699.81
586.91	1652.71
587.10	1777.64
587.30	1789.92
587.50	1681.38
587.70	1726.44
587.90	1611.75
588.10	1662.95
588.30	1646.57
588.50	1697.77
588.69	1708.01
588.89	1691.62
589.09	1675.24
589.29	1687.53
589.49	1730.53
589.69	1691.62
589.89	1724.39
590.08	1740.77
590.28	1615.85
590.48	1755.11
590.68	1753.06
590.88	1697.77
591.08	1757.16
591.28	1634.28
591.47	1757.16
591.67	1646.57
591.87	1648.61
592.07	1806.31
592.27	1615.85
592.47	1613.80
592.67	1679.33
592.86	1658.85
593.06	1787.88
593.26	1734.63
593.46	1765.35
593.66	1609.70
593.86	1810.40
594.05	1748.97
594.25	1683.43
594.45	1613.80
594.65	1773.54
594.85	1771.49
595.05	1738.73
595.24	1650.66
595.44	1699.81
595.64	1628.14
595.84	1724.39
596.04	1724.39
596.23	1679.33
596.43	1699.81
596.63	1734.63
596.83	1720.29
597.03	1816.55
597.22	1730.53
597.42	1769.44
597.62	1732.58
597.82	1787.88
598.02	1755.11
598.21	1660.90
598.41	1716.20
598.61	1589.22
598.81	1671.14
599.01	1730.53
599.20	1654.76
599.40	1675.24
599.60	1687.53
599.80	1667.05
600.00	1708.01
600.19	1753.06
600.39	1660.90
600.59	1714.15
600.79	1755.11
600.98	1712.10
601.18	1701.86
601.38	1648.61
601.58	1634.28
601.78	1767.40
601.97	1822.69
602.17	1753.06
602.37	1667.05
602.57	1744.87
602.76	1652.71
602.96	1685.48
603.16	1538.02
603.36	1714.15
603.55	1724.39
603.75	1621.99
603.95	1693.67
604.15	1791.97
604.34	1675.24
604.54	1683.43
604.74	1761.25
604.94	1642.47
605.13	1607.66
605.33	1665.00
605.53	1708.01
605.73	1724.39
605.92	1646.57
606.12	1662.95
606.32	1726.44
606.52	1755.11
606.71	1765.35
606.91	1619.94
607.11	1650.66
607.30	1656.81
607.50	1607.66
607.70	1753.06
607.90	1693.67
608.09	1566.70
608.29	1740.77
608.49	1755.11
608.68	1630.18
608.88	1646.57
609.08	1714.15
609.28	1718.25
609.47	1667.05
609.67	1675.24
609.87	1765.35
610.06	1722.34
610.26	1771.49
610.46	1791.97
610.66	1644.52
610.85	1714.15
611.05	1716.20
611.25	1628.14
611.44	1652.71
611.64	1720.29
611.84	1724.39
612.03	1732.58
612.23	1619.94
612.43	1789.92
612.62	1732.58
612.82	1701.86
613.02	1757.16
613.21	1716.20
613.41	1691.62
613.61	1650.66
613.80	1683.43
614.00	1712.10
614.20	1851.36
614.39	1748.97
614.59	1736.68
614.79	1699.81
614.98	1785.83
615.18	1671.14
615.38	1705.96
615.57	1617.90
615.77	1853.41
615.97	1697.77
616.16	1687.53
616.36	1787.88
616.56	1673.19
616.75	1642.47
616.95	1621.99
617.15	1783.78
617.34	1714.15
617.54	1804.26
617.74	1779.68
617.93	1771.49
618.13	1708.01
618.32	1718.25
618.52	1705.96
618.72	1615.85
618.91	1708.01
619.11	1687.53
619.31	1662.95
619.50	1685.48
619.70	1662.95
619.90	1705.96
620.09	1630.18
620.29	1619.94
620.48	1824.74
620.68	1734.63
620.88	1759.21
621.07	1777.64
621.27	1681.38
621.46	1675.24
621.66	1697.77
621.86	1724.39
622.05	1642.47
622.25	1830.88
622.44	1685.48
622.64	1613.80
622.84	1705.96
623.03	1658.85
623.23	1765.35
623.42	1736.68
623.62	1775.59
623.82	1751.01
624.01	1652.71
624.21	1679.33
624.40	1791.97
624.60	1683.43
624.80	1683.43
624.99	1759.21
625.19	1632.23
625.38	1724.39
625.58	1691.62
625.77	1660.90
625.97	1798.12
626.17	1595.37
626.36	1724.39
626.56	1759.21
626.75	1638.38
626.95	1689.57
627.14	1810.40
627.34	1710.05
627.54	1732.58
627.73	1781.73
627.93	1769.44
628.12	1697.77
628.32	1779.68
628.51	1730.53
628.71	1781.73
628.90	1689.57
629.10	1632.23
629.30	1693.67
629.49	1746.92
629.69	1689.57
629.88	1693.67
630.08	1804.26
630.27	1869.80
630.47	1687.53
630.66	1689.57
630.86	1810.40
631.05	1714.15
631.25	1681.38
631.44	1699.81
631.64	1662.95
631.84	1634.28
632.03	1851.36
632.23	1701.86
632.42	1716.20
632.62	1675.24
632.81	1621.99
633.01	1724.39
633.20	1765.35
633.40	1843.17
633.59	1642.47
633.79	1656.81
633.98	1728.49
634.18	1736.68
634.37	1744.87
634.57	1730.53
634.76	1617.90
634.96	1777.64
635.15	1849.32
635.35	1720.29
635.54	1722.34
635.74	1685.48
635.93	1558.50
636.13	1677.29
636.32	1763.30
636.52	1677.29
636.71	1677.29
636.91	1746.92
637.10	1730.53
637.30	1662.95
637.49	1677.29
637.69	1761.25
637.88	1740.77
638.08	1703.91
638.27	1738.73
638.46	1714.15
638.66	1697.77
638.85	1665.00
639.05	1667.05
639.24	1773.54
639.44	1705.96
639.63	1779.68
639.83	1791.97
640.02	1755.11
640.22	1675.24
640.41	1742.82
640.61	1748.97
640.80	1755.11
640.99	1650.66
641.19	1779.68
641.38	1781.73
641.58	1656.81
641.77	1669.09
641.97	1642.47
642.16	1669.09
642.36	1746.92
642.55	1566.70
642.74	1759.21
642.94	1798.12
643.13	1644.52
643.33	1787.88
643.52	1619.94
643.72	1665.00
643.91	1650.66
644.10	1755.11
644.30	1722.34
644.49	1720.29
644.69	1691.62
644.88	1658.85
645.08	1785.83
645.27	1714.15
645.46	1646.57
645.66	1658.85
645.85	1748.97
646.05	1681.38
646.24	1673.19
646.43	1638.38
646.63	1755.11
646.82	1728.49
647.02	1675.24
647.21	1740.77
647.40	1638.38
647.60	1658.85
647.79	1748.97
647.99	1646.57
648.18	1705.96
648.37	1767.40
648.57	1724.39
648.76	1648.61
648.96	1662.95
649.15	1703.91
649.34	1681.38
649.54	1667.05
649.73	1611.75
649.92	1740.77
650.12	1691.62
650.31	1665.00
650.51	1931.23
650.70	1751.01
650.89	1722.34
651.09	1822.69
651.28	1777.64
651.47	1658.85
651.67	1746.92
651.86	1777.64
652.06	1681.38
652.25	1695.72
652.44	1566.70
652.64	1736.68
652.83	1679.33
653.02	1683.43
653.22	1728.49
653.41	1673.19
653.60	1738.73
653.80	1677.29
653.99	1753.06
654.18	1697.77
654.38	1667.05
654.57	1781.73
654.76	1691.62
654.96	1806.31
655.15	1628.14
655.34	1638.38
655.54	1687.53
655.73	1587.18
655.92	1675.24
656.12	1658.85
656.31	1826.79
656.50	1748.97
656.70	1716.20
656.89	1619.94
657.08	1599.46
657.28	1734.63
657.47	1697.77
657.66	1761.25
657.86	1730.53
658.05	1677.29
658.24	1785.83
658.43	1765.35
658.63	1607.66
658.82	1757.16
659.01	1712.10
659.21	1804.26
659.40	1695.72
659.59	1687.53
659.79	1712.10
659.98	1837.03
660.17	1654.76
660.36	1728.49
660.56	1714.15
660.75	1712.10
660.94	1691.62
661.14	1728.49
661.33	1617.90
661.52	1665.00
661.71	1775.59
661.91	1724.39
662.10	1681.38
662.29	1609.70
662.49	1652.71
662.68	1634.28
662.87	1658.85
663.06	1712.10
663.26	1576.94
663.45	1839.08
663.64	1712.10
663.83	1761.25
664.03	1724.39
664.22	1785.83
664.41	1814.50
664.60	1814.50
664.80	1593.32
664.99	1724.39
665.18	1755.11
665.37	1757.16
665.57	1734.63
665.76	1724.39
665.95	1677.29
666.14	1689.57
666.34	1738.73
666.53	1673.19
666.72	1619.94
666.91	1621.99
667.11	1703.91
667.30	1824.74
667.49	1660.90
667.68	1753.06
667.87	1710.05
668.07	1783.78
668.26	1601.51
668.45	1619.94
668.64	1726.44
668.84	1761.25
669.03	1689.57
669.22	1779.68
669.41	1708.01
669.60	1679.33
669.80	1800.16
669.99	1755.11
670.18	1753.06
670.37	1787.88
670.57	1753.06
670.76	1724.39
670.95	1798.12
671.14	1720.29
671.33	1648.61
671.53	1679.33
671.72	1804.26
671.91	1800.16
672.10	1732.58
672.29	1724.39
672.48	1689.57
672.68	1613.80
672.87	1677.29
673.06	1677.29
673.25	1703.91
673.44	1722.34
673.64	1687.53
673.83	1718.25
674.02	1650.66
674.21	1783.78
674.40	1730.53
674.59	1636.33
674.79	1712.10
674.98	1710.05
675.17	1765.35
675.36	1607.66
675.55	1716.20
675.74	1679.33
675.94	1767.40
676.13	1673.19
676.32	1656.81
676.51	1658.85
676.70	1671.14
676.89	1738.73
677.08	1763.30
677.28	1863.65
677.47	1701.86
677.66	1705.96
677.85	1718.25
678.04	1667.05
678.23	1806.31
678.42	1683.43
678.62	1685.48
678.81	1687.53
679.00	1712.10
679.19	1855.46
679.38	1763.30
679.57	1658.85
679.76	1726.44
679.96	1599.46
680.15	1703.91
680.34	1636.33
680.53	1732.58
680.72	1716.20
680.91	1634.28
681.10	1753.06
681.29	1744.87
681.48	1777.64
681.68	1785.83
681.87	1763.30
682.06	1681.38
682.25	1705.96
682.44	1644.52
682.63	1802.21
682.82	1581.03
683.01	1720.29
683.20	1695.72
683.39	1785.83
683.59	1703.91
683.78	1689.57
683.97	1660.90
684.16	1617.90
684.35	1650.66
684.54	1718.25
684.73	1617.90
684.92	1632.23
685.11	1757.16
685.30	1714.15
685.49	1675.24
685.69	1808.36
685.88	1669.09
686.07	1548.26
686.26	1675.24
686.45	1687.53
686.64	1779.68
686.83	1757.16
687.02	1679.33
687.21	1783.78
687.40	1646.57
687.59	1808.36
687.78	1744.87
687.97	1781.73
688.16	1710.05
688.35	1689.57
688.54	1722.34
688.74	1540.07
688.93	1755.11
689.12	1658.85
689.31	1904.61
689.50	1734.63
689.69	1683.43
689.88	1609.70
690.07	1634.28
690.26	1685.48
690.45	1650.66
690.64	1658.85
690.83	1699.81
691.02	1695.72
691.21	1671.14
691.40	1703.91
691.59	1691.62
691.78	1708.01
691.97	1630.18
692.16	1667.05
692.35	1689.57
692.54	1798.12
692.73	1642.47
692.92	1699.81
693.11	1787.88
693.30	1769.44
693.49	1683.43
693.68	1748.97
693.87	1757.16
694.06	1628.14
694.25	1593.32
694.44	1626.09
694.63	1658.85
694.82	1662.95
695.01	1642.47
695.20	1640.42
695.39	1654.76
695.58	1642.47
695.77	1689.57
695.96	1734.63
696.15	1767.40
696.34	1660.90
696.53	1683.43
696.72	1712.10
696.91	1695.72
697.10	1673.19
697.29	1621.99
697.48	1861.60
697.67	1791.97
697.86	1613.80
698.05	1626.09
698.24	1720.29
698.43	1693.67
698.62	1785.83
698.81	1662.95
699.00	1695.72
699.19	1763.30
699.38	1714.15
699.57	1681.38
699.76	1798.12
699.95	1699.81
700.14	1656.81
700.32	1746.92
700.51	1667.05
700.70	1695.72
700.89	1777.64
701.08	1744.87
701.27	1669.09
701.46	1773.54
701.65	1722.34
701.84	1683.43
702.03	1691.62
702.22	1769.44
702.41	1794.02
702.60	1724.39
702.79	1751.01
702.98	1681.38
703.17	1748.97
703.35	1683.43
703.54	1720.29
703.73	1701.86
703.92	1642.47
704.11	1681.38
704.30	1712.10
704.49	1742.82
704.68	1683.43
704.87	1646.57
705.06	1861.60
705.25	1652.71
705.43	1697.77
705.62	1640.42
705.81	1714.15
706.00	1687.53
706.19	1685.48
706.38	1630.18
706.57	1765.35
706.76	1681.38
706.95	1695.72
707.14	1660.90
707.32	1644.52
707.51	1691.62
707.70	1632.23
707.89	1609.70
708.08	1665.00
708.27	1724.39
708.46	1708.01
708.65	1605.61
708.84	1761.25
709.02	1726.44
709.21	1662.95
709.40	1687.53
709.59	1798.12
709.78	1650.66
709.97	1708.01
710.16	1708.01
710.34	1724.39
710.53	1748.97
710.72	1687.53
710.91	1648.61
711.10	1701.86
711.29	1607.66
711.48	1834.98
711.66	1673.19
711.85	1683.43
712.04	1787.88
712.23	1691.62
712.42	1755.11
712.61	1757.16
712.80	1650.66
712.98	1667.05
713.17	1624.04
713.36	1765.35
713.55	1773.54
713.74	1712.10
713.93	1748.97
714.11	1654.76
714.30	1531.88
714.49	1714.15
714.68	1697.77
714.87	1613.80
715.06	1771.49
715.24	1722.34
715.43	1605.61
715.62	1660.90
715.81	1671.14
716.00	1662.95
716.18	1703.91
716.37	1748.97
716.56	1650.66
716.75	1671.14
716.94	1683.43
717.12	1716.20
717.31	1738.73
717.50	1724.39
717.69	1640.42
717.88	1695.72
718.06	1693.67
718.25	1769.44
718.44	1640.42
718.63	1765.35
718.82	1621.99
719.00	1722.34
719.19	1822.69
719.38	1705.96
719.57	1712.10
719.76	1712.10
719.94	1751.01
720.13	1701.86
720.32	1777.64
720.51	1660.90
720.69	1744.87
720.88	1806.31
721.07	1681.38
721.26	1695.72
721.44	1687.53
721.63	1724.39
721.82	1669.09
722.01	1724.39
722.20	1724.39
722.38	1769.44
722.57	1703.91
722.76	1667.05
722.95	1646.57
723.13	1632.23
723.32	1689.57
723.51	1732.58
723.70	1712.10
723.88	1804.26
724.07	1617.90
724.26	1787.88
724.44	1705.96
724.63	1843.17
724.82	1626.09
725.01	1703.91
725.19	1703.91
725.38	1675.24
725.57	1716.20
725.76	1791.97
725.94	1591.27
726.13	1640.42
726.32	1634.28
726.51	1732.58
726.69	1564.65
726.88	1650.66
727.07	1791.97
727.25	1703.91
727.44	1720.29
727.63	1669.09
727.82	1665.00
728.00	1708.01
728.19	1662.95
728.38	1667.05
728.56	1578.98
728.75	1712.10
728.94	1710.05
729.12	1726.44
729.31	1740.77
729.50	1675.24
729.69	1705.96
729.87	1714.15
730.06	1662.95
730.25	1644.52
730.43	1765.35
730.62	1644.52
730.81	1755.11
730.99	1632.23
731.18	1642.47
731.37	1744.87
731.55	1677.29
731.74	1716.20
731.93	1654.76
732.11	1695.72
732.30	1621.99
732.49	1695.72
732.67	1667.05
732.86	1652.71
733.05	1599.46
733.23	1759.21
733.42	1660.90
733.61	1705.96
733.79	1722.34
733.98	1699.81
734.17	1542.12
734.35	1718.25
734.54	1732.58
734.73	1724.39
734.91	1576.94
735.10	1697.77
735.29	1732.58
735.47	1558.50
735.66	1603.56
735.84	1724.39
736.03	1730.53
736.22	1714.15
736.40	1708.01
736.59	1542.12
736.78	1640.42
736.96	1681.38
737.15	1767.40
737.33	1695.72
737.52	1595.37
737.71	1724.39
737.89	1699.81
738.08	1660.90
738.27	1787.88
738.45	1708.01
738.64	1669.09
738.82	1675.24
739.01	1775.59
739.20	1744.87
739.38	1736.68
739.57	1703.91
739.75	1667.05
739.94	1656.81
740.13	1613.80
740.31	1720.29
740.50	1642.47
740.68	1671.14
740.87	1613.80
741.06	1693.67
741.24	1720.29
741.43	1662.95
741.61	1730.53
741.80	1679.33
741.99	1681.38
742.17	1712.10
742.36	1609.70
742.54	1675.24
742.73	1695.72
742.91	1781.73
743.10	1703.91
743.29	1683.43
743.47	1744.87
743.66	1632.23
743.84	1656.81
744.03	1634.28
744.21	1550.31
744.40	1705.96
744.59	1671.14
744.77	1699.81
744.96	1763.30
745.14	1665.00
745.33	1744.87
745.51	1695.72
745.70	1714.15
745.88	1740.77
746.07	1628.14
746.26	1658.85
746.44	1599.46
746.63	1560.55
746.81	1761.25
747.00	1785.83
747.18	1634.28
747.37	1642.47
747.55	1662.95
747.74	2023.39
747.92	1619.94
748.11	1761.25
748.29	1691.62
748.48	1746.92
748.66	1611.75
748.85	1673.19
749.03	1634.28
749.22	1638.38
749.41	1654.76
749.59	1679.33
749.78	1724.39
749.96	1617.90
750.15	1662.95
750.33	1773.54
750.52	1689.57
750.70	1697.77
750.89	1701.86
751.07	1685.48
751.26	1722.34
751.44	1591.27
751.63	1775.59
751.81	1650.66
752.00	1589.22
752.18	1710.05
752.37	1714.15
752.55	1595.37
752.74	1640.42
752.92	1677.29
753.10	1681.38
753.29	1716.20
753.47	1656.81
753.66	1628.14
753.84	1644.52
754.03	1605.61
754.21	1634.28
754.40	1677.29
754.58	1716.20
754.77	1748.97
754.95	1779.68
755.14	1720.29
755.32	1656.81
755.51	1572.84
755.69	1652.71
755.88	1505.26
756.06	1748.97
756.24	1736.68
756.43	1732.58
756.61	1751.01
756.80	1662.95
756.98	1675.24
757.17	1746.92
757.35	1736.68
757.54	1632.23
757.72	1695.72
757.90	1705.96
758.09	1662.95
758.27	1558.50
758.46	1646.57
758.64	1708.01
758.83	1619.94
759.01	1761.25
759.19	1753.06
759.38	1714.15
759.56	1728.49
759.75	1632.23
759.93	1691.62
760.12	1619.94
760.30	1628.14
760.48	1673.19
760.67	1671.14
760.85	1636.33
761.04	1593.32
761.22	1728.49
761.40	1658.85
761.59	1611.75
761.77	1589.22
761.96	1683.43
762.14	1646.57
762.32	1798.12
762.51	1644.52
762.69	1646.57
762.88	1642.47
763.06	1599.46
763.24	1699.81
763.43	1585.13
763.61	1705.96
763.80	1736.68
763.98	1761.25
764.16	1585.13
764.35	1570.79
764.53	1665.00
764.72	1705.96
764.90	1697.77
765.08	1675.24
765.27	1769.44
765.45	1665.00
765.63	1634.28
765.82	1673.19
766.00	1675.24
766.18	1656.81
766.37	1667.05
766.55	1687.53
766.74	1652.71
766.92	1681.38
767.10	1630.18
767.29	1785.83
767.47	1716.20
767.65	1671.14
767.84	1734.63
768.02	1658.85
768.20	1665.00
768.39	1732.58
768.57	1648.61
768.75	1662.95
768.94	1775.59
769.12	1601.51
769.30	1640.42
769.49	1718.25
769.67	1687.53
769.85	1773.54
770.04	1566.70
770.22	1665.00
770.40	1708.01
770.59	1699.81
770.77	1779.68
770.95	1765.35
771.14	1771.49
771.32	1640.42
771.50	1638.38
771.69	1540.07
771.87	1701.86
772.05	1734.63
772.24	1609.70
772.42	1732.58
772.60	1699.81
772.78	1710.05
772.97	1593.32
773.15	1691.62
773.33	1705.96
773.52	1558.50
773.70	1654.76
773.88	1695.72
774.07	1615.85
774.25	1624.04
774.43	1716.20
774.61	1683.43
774.80	1578.98
774.98	1714.15
775.16	1613.80
775.34	1697.77
775.53	1773.54
775.71	1728.49
775.89	1658.85
776.08	1636.33
776.26	1656.81
776.44	1683.43
776.62	1673.19
776.81	1640.42
776.99	1736.68
777.17	1681.38
777.35	1751.01
777.54	1658.85
777.72	1710.05
777.90	1572.84
778.08	1667.05
778.27	1671.14
778.45	1626.09
778.63	1621.99
778.81	1683.43
779.00	1708.01
779.18	1726.44
779.36	1773.54
779.54	1796.07
779.73	1689.57
779.91	1634.28
780.09	1609.70
780.27	1708.01
780.46	1697.77
780.64	1644.52
780.82	1796.07
781.00	1693.67
781.19	1615.85
781.37	1660.90
781.55	1720.29
781.73	1632.23
781.91	1617.90
782.10	1687.53
782.28	1796.07
782.46	1646.57
782.64	1671.14
782.82	1716.20
783.01	1728.49
783.19	1781.73
783.37	1751.01
783.55	1691.62
783.74	1677.29
783.92	1583.08
784.10	1720.29
784.28	1632.23
784.46	1681.38
784.64	1603.56
784.83	1732.58
785.01	1785.83
785.19	1759.21
785.37	1691.62
785.55	1685.48
785.74	1726.44
785.92	1683.43
786.10	1646.57
786.28	1794.02
786.46	1703.91
786.64	1634.28
786.83	1630.18
787.01	1722.34
787.19	1814.50
787.37	1751.01
787.55	1626.09
787.74	1609.70
787.92	1660.90
788.10	1753.06
788.28	1662.95
788.46	1675.24
788.64	1681.38
788.82	1781.73
789.01	1613.80
789.19	1720.29
789.37	1714.15
789.55	1701.86
789.73	1617.90
789.91	1714.15
790.09	1638.38
790.28	1650.66
790.46	1671.14
790.64	1634.28
790.82	1617.90
791.00	1621.99
791.18	1769.44
791.36	1697.77
791.55	1712.10
791.73	1626.09
791.91	1607.66
792.09	1691.62
792.27	1525.74
792.45	1669.09
792.63	1779.68
792.81	1681.38
793.00	1669.09
793.18	1667.05
793.36	1769.44
793.54	1667.05
793.72	1656.81
793.90	1656.81
794.08	1613.80
794.26	1636.33
794.44	1527.78
794.62	1699.81
794.81	1605.61
794.99	1724.39
795.17	1734.63
795.35	1644.52
795.53	1703.91
795.71	1714.15
795.89	1621.99
796.07	1685.48
796.25	1640.42
796.43	1789.92
796.61	1726.44
796.80	1650.66
796.98	1675.24
797.16	1656.81
797.34	1621.99
797.52	1646.57
797.70	1701.86
797.88	1720.29
798.06	1662.95
798.24	1753.06
798.42	1609.70
798.60	1699.81
798.78	1714.15
798.96	1726.44
799.14	1689.57
799.32	1777.64
799.51	1716.20
799.69	1710.05
799.87	1755.11
800.05	1650.66
800.23	1640.42
800.41	1644.52
800.59	1734.63
800.77	1632.23
800.95	1527.78
801.13	1759.21
801.31	1736.68
801.49	1689.57
801.67	1677.29
801.85	1570.79
802.03	1689.57
802.21	1681.38
802.39	1589.22
802.57	1650.66
802.75	1675.24
802.93	1765.35
803.11	1638.38
803.29	1675.24
803.47	1642.47
803.65	1568.74
803.83	1689.57
804.01	1630.18
804.19	1712.10
804.37	1642.47
804.55	1654.76
804.73	1675.24
804.91	1630.18
805.09	1683.43
805.27	1699.81
805.45	1662.95
805.63	1716.20
805.81	1722.34
805.99	1726.44
806.17	1714.15
806.35	1642.47
806.53	1748.97
806.71	1681.38
806.89	1632.23
807.07	1718.25
807.25	1681.38
807.43	1642.47
807.61	1779.68
807.79	1669.09
807.97	1736.68
808.15	1720.29
808.33	1665.00
808.51	1644.52
808.69	1683.43
808.87	1615.85
809.05	1574.89
809.23	1574.89
809.41	1556.46
809.59	1626.09
809.77	1773.54
809.95	1738.73
810.13	1730.53
810.31	1673.19
810.49	1763.30
810.67	1712.10
810.84	1667.05
811.02	1632.23
811.20	1667.05
811.38	1757.16
811.56	1630.18
811.74	1667.05
811.92	1681.38
812.10	1658.85
812.28	1667.05
812.46	1646.57
812.64	1728.49
812.82	1656.81
813.00	1679.33
813.18	1703.91
813.36	1621.99
813.53	1708.01
813.71	1734.63
813.89	1640.42
814.07	1648.61
814.25	1724.39
814.43	1667.05
814.61	1607.66
814.79	1658.85
814.97	1640.42
815.15	1673.19
815.33	1617.90
815.50	1624.04
815.68	1619.94
815.86	1638.38
816.04	1626.09
816.22	1640.42
816.40	1695.72
816.58	1710.05
816.76	1621.99
816.94	1638.38
817.11	1683.43
817.29	1691.62
817.47	1621.99
817.65	1591.27
817.83	1656.81
818.01	1611.75
818.19	1607.66
818.37	1708.01
818.54	1722.34
818.72	1732.58
818.90	1740.77
819.08	1617.90
819.26	1650.66
819.44	1787.88
819.62	1671.14
819.80	1650.66
819.97	1740.77
820.15	1738.73
820.33	1660.90
820.51	1572.84
820.69	1654.76
820.87	1730.53
821.05	1695.72
821.22	1630.18
821.40	1705.96
821.58	1728.49
821.76	1585.13
821.94	1626.09
822.12	1685.48
822.29	1724.39
822.47	1626.09
822.65	1632.23
822.83	1640.42
823.01	1689.57
823.19	1642.47
823.36	1632.23
823.54	1636.33
823.72	1654.76
823.90	1687.53
824.08	1572.84
824.25	1724.39
824.43	1656.81
824.61	1611.75
824.79	1685.48
824.97	1558.50
825.15	1689.57
825.32	1642.47
825.50	1720.29
825.68	1621.99
825.86	1695.72
826.04	1667.05
826.21	1675.24
826.39	1587.18
826.57	1642.47
826.75	1652.71
826.93	1632.23
827.10	1681.38
827.28	1650.66
827.46	1724.39
827.64	1693.67
827.81	1667.05
827.99	1626.09
828.17	1734.63
828.35	1558.50
828.53	1689.57
828.70	1675.24
828.88	1697.77
829.06	1634.28
829.24	1609.70
829.41	1658.85
829.59	1748.97
829.77	1650.66
829.95	1755.11
830.12	1603.56
830.30	1669.09
830.48	1724.39
830.66	1656.81
830.84	1591.27
831.01	1701.86
831.19	1552.36
831.37	1669.09
831.55	1630.18
831.72	1693.67
831.90	1677.29
832.08	1693.67
832.25	1601.51
832.43	1705.96
832.61	1738.73
832.79	1581.03
832.96	1634.28
833.14	1714.15
833.32	1732.58
833.50	1617.90
833.67	1654.76
833.85	1630.18
834.03	1683.43
834.20	1712.10
834.38	1744.87
834.56	1705.96
834.74	1605.61
834.91	1691.62
835.09	1718.25
835.27	1642.47
835.44	1652.71
835.62	1646.57
835.80	1609.70
835.98	1662.95
836.15	1712.10
836.33	1599.46
836.51	1519.59
836.68	1642.47
836.86	1613.80
837.04	1736.68
837.21	1810.40
837.39	1658.85
837.57	1755.11
837.75	1689.57
837.92	1675.24
838.10	1681.38
838.28	1638.38
838.45	1654.76
838.63	1660.90
838.81	1763.30
838.98	1667.05
839.16	1658.85
839.34	1642.47
839.51	1613.80
839.69	1640.42
839.87	1570.79
840.04	1712.10
840.22	1859.56
840.40	1667.05
840.57	1619.94
840.75	1640.42
840.93	1521.64
841.10	1615.85
841.28	1757.16
841.46	1693.67
841.63	1693.67
841.81	1599.46
841.98	1634.28
842.16	1699.81
842.34	1607.66
842.51	1568.74
842.69	1695.72
842.87	1615.85
843.04	1705.96
843.22	1693.67
843.40	1611.75
843.57	1691.62
843.75	1578.98
843.92	1708.01
844.10	1644.52
844.28	1615.85
844.45	1691.62
844.63	1730.53
844.81	1693.67
844.98	1779.68
845.16	1619.94
845.33	1636.33
845.51	1619.94
845.69	1712.10
845.86	1820.64
846.04	1546.22
846.21	1589.22
846.39	1634.28
846.57	1609.70
846.74	1552.36
846.92	1751.01
847.09	1636.33
847.27	1689.57
847.45	1705.96
847.62	1632.23
847.80	1640.42
847.97	1673.19
848.15	1671.14
848.32	1589.22
848.50	1636.33
848.68	1611.75
848.85	1679.33
849.03	1574.89
849.20	1642.47
849.38	1615.85
849.56	1652.71
849.73	1613.80
849.91	1597.42
850.08	1712.10
850.26	1552.36
850.43	1589.22
850.61	1757.16
850.78	1566.70
850.96	1689.57
851.14	1552.36
851.31	1734.63
851.49	1634.28
851.66	1644.52
851.84	1568.74
852.01	1671.14
852.19	1636.33
852.36	1593.32
852.54	1650.66
852.71	1673.19
852.89	1673.19
853.07	1576.94
853.24	1617.90
853.42	1611.75
853.59	1595.37
853.77	1650.66
853.94	1714.15
854.12	1812.45
854.29	1531.88
854.47	1546.22
854.64	1675.24
854.82	1601.51
854.99	1722.34
855.17	1646.57
855.34	1583.08
855.52	1736.68
855.69	1839.08
855.87	1703.91
856.04	1640.42
856.22	1656.81
856.39	1611.75
856.57	1669.09
856.74	1683.43
856.92	1658.85
857.09	1626.09
857.27	1626.09
857.44	1687.53
857.62	1755.11
857.79	1636.33
857.97	1724.39
858.14	1591.27
858.32	1703.91
858.49	1595.37
858.67	1687.53
858.84	1574.89
859.02	1691.62
859.19	1642.47
859.37	1519.59
859.54	1652.71
859.72	1538.02
859.89	1673.19
860.06	1585.13
860.24	1640.42
860.41	1740.77
860.59	1646.57
860.76	1658.85
860.94	1554.41
861.11	1671.14
861.29	1818.60
861.46	1656.81
861.64	1613.80
861.81	1742.82
861.98	1650.66
862.16	1687.53
862.33	1572.84
862.51	1650.66
862.68	1744.87
862.86	1605.61
863.03	1540.07
863.21	1636.33
863.38	1621.99
863.55	1621.99
863.73	1617.90
863.90	1677.29
864.08	1669.09
864.25	1695.72
864.43	1654.76
864.60	1646.57
864.77	1583.08
864.95	1665.00
865.12	1654.76
865.30	1728.49
865.47	1695.72
865.64	1646.57
865.82	1650.66
865.99	1730.53
866.17	1732.58
866.34	1740.77
866.51	1609.70
866.69	1669.09
866.86	1757.16
867.04	1732.58
867.21	1667.05
867.38	1601.51
867.56	1662.95
867.73	1695.72
867.91	1621.99
868.08	1560.55
868.25	1607.66
868.43	1669.09
868.60	1693.67
868.78	1609.70
868.95	1615.85
869.12	1654.76
869.30	1632.23
869.47	1726.44
869.64	1630.18
869.82	1593.32
869.99	1652.71
870.16	1665.00
870.34	1677.29
870.51	1765.35
870.69	1519.59
870.86	1671.14
871.03	1638.38
871.21	1617.90
871.38	1617.90
871.55	1665.00
871.73	1574.89
871.90	1634.28
872.07	1654.76
872.25	1552.36
872.42	1511.40
872.59	1521.64
872.77	1636.33
872.94	1615.85
873.11	1677.29
873.29	1695.72
873.46	1581.03
873.63	1683.43
873.81	1607.66
873.98	1665.00
874.15	1640.42
874.33	1615.85
874.50	1697.77
874.67	1777.64
874.85	1595.37
875.02	1648.61
875.19	1615.85
875.37	1679.33
875.54	1636.33
875.71	1675.24
875.88	1720.29
876.06	1599.46
876.23	1677.29
876.40	1736.68
876.58	1726.44
876.75	1740.77
876.92	1578.98
877.10	1656.81
877.27	1685.48
877.44	1730.53
877.61	1652.71
877.79	1630.18
877.96	1648.61
878.13	1624.04
878.31	1634.28
878.48	1611.75
878.65	1736.68
878.82	1552.36
879.00	1578.98
879.17	1695.72
879.34	1640.42
879.51	1560.55
879.69	1630.18
879.86	1589.22
880.03	1560.55
880.21	1671.14
880.38	1642.47
880.55	1724.39
880.72	1634.28
880.90	1681.38
881.07	1638.38
881.24	1720.29
881.41	1716.20
881.59	1615.85
881.76	1665.00
881.93	1665.00
882.10	1615.85
882.28	1648.61
882.45	1748.97
882.62	1730.53
882.79	1667.05
882.96	1632.23
883.14	1667.05
883.31	1726.44
883.48	1634.28
883.65	1617.90
883.83	1562.60
884.00	1656.81
884.17	1613.80
884.34	1689.57
884.51	1695.72
884.69	1646.57
884.86	1601.51
885.03	1648.61
885.20	1574.89
885.38	1691.62
885.55	1687.53
885.72	1691.62
885.89	1628.14
886.06	1720.29
886.24	1634.28
886.41	1611.75
886.58	1683.43
886.75	1720.29
886.92	1578.98
887.10	1624.04
887.27	1644.52
887.44	1689.57
887.61	1728.49
887.78	1740.77
887.95	1693.67
888.13	1656.81
888.30	1642.47
888.47	1609.70
888.64	1638.38
888.81	1683.43
888.99	1597.42
889.16	1640.42
889.33	1697.77
889.50	1726.44
889.67	1656.81
889.84	1667.05
890.01	1722.34
890.19	1701.86
890.36	1652.71
890.53	1658.85
890.70	1597.42
890.87	1689.57
891.04	1642.47
891.22	1656.81
891.39	1605.61
891.56	1665.00
891.73	1679.33
891.90	1564.65
892.07	1533.93
892.24	1654.76
892.42	1634.28
892.59	1583.08
892.76	1677.29
892.93	1574.89
893.10	1673.19
893.27	1693.67
893.44	1613.80
893.61	1562.60
893.79	1660.90
893.96	1591.27
894.13	1628.14
894.30	1617.90
894.47	1677.29
894.64	1753.06
894.81	1601.51
894.98	1628.14
895.15	1679.33
895.33	1671.14
895.50	1581.03
895.67	1593.32
895.84	1718.25
896.01	1630.18
896.18	1515.50
896.35	1771.49
896.52	1578.98
896.69	1648.61
896.86	1638.38
897.04	1638.38
897.21	1703.91
897.38	1699.81
897.55	1634.28
897.72	1665.00
897.89	1599.46
898.06	1683.43
898.23	1574.89
898.40	1662.95
898.57	1695.72
898.74	1679.33
898.91	1572.84
899.08	1607.66
899.26	1642.47
899.43	1796.07
899.60	1652.71
899.77	1695.72
899.94	1578.98
900.11	1658.85
900.28	1628.14
900.45	1650.66
900.62	1636.33
900.79	1687.53
900.96	1675.24
901.13	1621.99
901.30	1583.08
901.47	1542.12
901.64	1593.32
901.81	1693.67
901.98	1535.98
902.15	1634.28
902.32	1562.60
902.49	1671.14
902.66	1705.96
902.83	1632.23
903.01	1660.90
903.18	1685.48
903.35	1558.50
903.52	1665.00
903.69	1724.39
903.86	1624.04
904.03	1658.85
904.20	1683.43
904.37	1660.90
904.54	1533.93
904.71	1585.13
904.88	1705.96
905.05	1574.89
905.22	1695.72
905.39	1583.08
905.56	1628.14
905.73	1568.74
905.90	1619.94
906.07	1648.61
906.24	1667.05
906.41	1630.18
906.58	1621.99
906.75	1605.61
906.92	1583.08
907.09	1581.03
907.26	1601.51
907.43	1564.65
907.60	1646.57
907.77	1638.38
907.93	1671.14
908.10	1593.32
908.27	1689.57
908.44	1578.98
908.61	1552.36
908.78	1617.90
908.95	1728.49
909.12	1673.19
909.29	1681.38
909.46	1595.37
909.63	1763.30
909.80	1646.57
909.97	1689.57
910.14	1615.85
910.31	1566.70
910.48	1648.61
910.65	1607.66
910.82	1652.71
910.99	1681.38
911.16	1609.70
911.33	1644.52
911.50	1652.71
911.66	1642.47
911.83	1617.90
912.00	1621.99
912.17	1587.18
912.34	1566.70
912.51	1562.60
912.68	1581.03
912.85	1652.71
913.02	1728.49
913.19	1615.85
913.36	1650.66
913.53	1687.53
913.70	1636.33
913.86	1748.97
914.03	1675.24
914.20	1562.60
914.37	1628.14
914.54	1638.38
914.71	1665.00
914.88	1654.76
915.05	1601.51
915.22	1652.71
915.39	1609.70
915.55	1652.71
915.72	1552.36
915.89	1691.62
916.06	1599.46
916.23	1599.46
916.40	1578.98
916.57	1540.07
916.74	1667.05
916.91	1605.61
917.07	1591.27
917.24	1595.37
917.41	1634.28
917.58	1708.01
917.75	1617.90
917.92	1513.45
918.09	1591.27
918.26	1589.22
918.42	1562.60
918.59	1697.77
918.76	1624.04
918.93	1628.14
919.10	1650.66
919.27	1587.18
919.44	1748.97
919.60	1601.51
919.77	1576.94
919.94	1648.61
920.11	1576.94
920.28	1716.20
920.45	1535.98
920.61	1566.70
920.78	1708.01
920.95	1761.25
921.12	1710.05
921.29	1568.74
921.46	1642.47
921.62	1574.89
921.79	1564.65
921.96	1650.66
922.13	1628.14
922.30	1626.09
922.47	1687.53
922.63	1646.57
922.80	1636.33
922.97	1634.28
923.14	1540.07
923.31	1613.80
923.47	1667.05
923.64	1785.83
923.81	1560.55
923.98	1699.81
924.15	1665.00
924.32	1714.15
924.48	1681.38
924.65	1710.05
924.82	1533.93
924.99	1601.51
925.15	1470.44
925.32	1773.54
925.49	1658.85
925.66	1615.85
925.83	1593.32
925.99	1562.60
926.16	1724.39
926.33	1589.22
926.50	1593.32
926.67	1626.09
926.83	1591.27
927.00	1626.09
927.17	1658.85
927.34	1613.80
927.50	1638.38
927.67	1775.59
927.84	1662.95
928.01	1535.98
928.17	1652.71
928.34	1621.99
928.51	1667.05
928.68	1540.07
928.84	1654.76
929.01	1605.61
929.18	1568.74
929.35	1703.91
929.51	1718.25
929.68	1654.76
929.85	1593.32
930.02	1626.09
930.18	1654.76
930.35	1693.67
930.52	1642.47
930.69	1689.57
930.85	1687.53
931.02	1595.37
931.19	1624.04
931.36	1650.66
931.52	1572.84
931.69	1681.38
931.86	1607.66
932.02	1652.71
932.19	1554.41
932.36	1650.66
932.53	1656.81
932.69	1607.66
932.86	1708.01
933.03	1671.14
933.19	1525.74
933.36	1607.66
933.53	1759.21
933.70	1679.33
933.86	1646.57
934.03	1763.30
934.20	1632.23
934.36	1683.43
934.53	1548.26
934.70	1636.33
934.86	1609.70
935.03	1673.19
935.20	1617.90
935.36	1662.95
935.53	1642.47
935.70	1640.42
935.86	1673.19
936.03	1486.83
936.20	1542.12
936.36	1628.14
936.53	1585.13
936.70	1587.18
936.86	1759.21
937.03	1744.87
937.20	1542.12
937.36	1722.34
937.53	1568.74
937.70	1572.84
937.86	1619.94
938.03	1601.51
938.20	1624.04
938.36	1613.80
938.53	1613.80
938.70	1531.88
938.86	1695.72
939.03	1646.57
939.20	1593.32
939.36	1583.08
939.53	1705.96
939.70	1828.84
939.86	1615.85
940.03	1613.80
940.19	1617.90
940.36	1669.09
940.53	1654.76
940.69	1570.79
940.86	1683.43
941.03	1636.33
941.19	1593.32
941.36	1662.95
941.52	1605.61
941.69	1581.03
941.86	1578.98
942.02	1708.01
942.19	1628.14
942.35	1734.63
942.52	1640.42
942.69	1632.23
942.85	1615.85
943.02	1568.74
943.18	1652.71
943.35	1603.56
943.52	1632.23
943.68	1562.60
943.85	1683.43
944.01	1695.72
944.18	1671.14
944.35	1732.58
944.51	1669.09
944.68	1523.69
944.84	1605.61
945.01	1648.61
945.17	1687.53
945.34	1574.89
945.51	1691.62
945.67	1646.57
945.84	1619.94
946.00	1560.55
946.17	1679.33
946.33	1535.98
946.50	1699.81
946.67	1667.05
946.83	1607.66
947.00	1689.57
947.16	1615.85
947.33	1648.61
947.49	1589.22
947.66	1617.90
947.82	1660.90
947.99	1535.98
948.16	1683.43
948.32	1564.65
948.49	1695.72
948.65	1652.71
948.82	1611.75
948.98	1595.37
949.15	1607.66
949.31	1642.47
949.48	1628.14
949.64	1599.46
949.81	1578.98
949.97	1630.18
950.14	1675.24
950.30	1593.32
950.47	1634.28
950.63	1632.23
950.80	1665.00
950.96	1554.41
951.13	1630.18
951.30	1617.90
951.46	1599.46
951.63	1665.00
951.79	1648.61
951.96	1583.08
952.12	1675.24
952.29	1669.09
952.45	1517.54
952.62	1617.90
952.78	1599.46
952.94	1677.29
953.11	1587.18
953.27	1544.17
953.44	1658.85
953.60	1675.24
953.77	1714.15
953.93	1687.53
954.10	1617.90
954.26	1609.70
954.43	1628.14
954.59	1744.87
954.76	1785.83
954.92	1652.71
955.09	1617.90
955.25	1583.08
955.42	1613.80
955.58	1669.09
955.75	1667.05
955.91	1603.56
956.07	1646.57
956.24	1540.07
956.40	1720.29
956.57	1642.47
956.73	1525.74
956.90	1630.18
957.06	1652.71
957.23	1574.89
957.39	1576.94
957.56	1615.85
957.72	1576.94
957.88	1540.07
958.05	1640.42
958.21	1720.29
958.38	1531.88
958.54	1581.03
958.71	1660.90
958.87	1593.32
959.03	1615.85
959.20	1593.32
959.36	1572.84
959.53	1585.13
959.69	1591.27
959.85	1681.38
960.02	1626.09
960.18	1605.61
960.35	1683.43
960.51	1757.16
960.68	1570.79
960.84	1621.99
961.00	1591.27
961.17	1611.75
961.33	1605.61
961.50	1581.03
961.66	1636.33
961.82	1591.27
961.99	1665.00
962.15	1667.05
962.31	1552.36
962.48	1658.85
962.64	1681.38
962.81	1656.81
962.97	1628.14
963.13	1642.47
963.30	1650.66
963.46	1644.52
963.62	1605.61
963.79	1544.17
963.95	1609.70
964.12	1695.72
964.28	1740.77
964.44	1638.38
964.61	1611.75
964.77	1640.42
964.93	1675.24
965.10	1748.97
965.26	1566.70
965.42	1687.53
965.59	1601.51
965.75	1656.81
965.92	1650.66
966.08	1683.43
966.24	1644.52
966.41	1630.18
966.57	1611.75
966.73	1632.23
966.90	1695.72
967.06	1589.22
967.22	1638.38
967.39	1665.00
967.55	1624.04
967.71	1699.81
967.88	1531.88
968.04	1552.36
968.20	1566.70
968.37	1615.85
968.53	1562.60
968.69	1568.74
968.85	1603.56
969.02	1652.71
969.18	1650.66
969.34	1720.29
969.51	1624.04
969.67	1751.01
969.83	1585.13
970.00	1675.24
970.16	1667.05
970.32	1617.90
970.48	1703.91
970.65	1574.89
970.81	1583.08
970.97	1654.76
971.14	1589.22
971.30	1744.87
971.46	1689.57
971.63	1693.67
971.79	1755.11
971.95	1621.99
972.11	1650.66
972.28	1642.47
972.44	1681.38
972.60	1542.12
972.76	1603.56
972.93	1632.23
973.09	1705.96
973.25	1687.53
973.42	1605.61
973.58	1660.90
973.74	1630.18
973.90	1609.70
974.07	1593.32
974.23	1658.85
974.39	1632.23
974.55	1634.28
974.72	1677.29
974.88	1492.97
975.04	1685.48
975.20	1560.55
975.37	1587.18
975.53	1581.03
975.69	1658.85
975.85	1609.70
976.01	1701.86
976.18	1689.57
976.34	1673.19
976.50	1667.05
976.66	1751.01
976.83	1574.89
976.99	1644.52
977.15	1650.66
977.31	1568.74
977.47	1679.33
977.64	1644.52
977.80	1578.98
977.96	1632.23
978.12	1689.57
978.29	1593.32
978.45	1529.83
978.61	1626.09
978.77	1724.39
978.93	1574.89
979.10	1667.05
979.26	1609.70
979.42	1677.29
979.58	1531.88
979.74	1642.47
979.91	1660.90
980.07	1564.65
980.23	1613.80
980.39	1554.41
980.55	1679.33
980.71	1562.60
980.88	1599.46
981.04	1560.55
981.20	1630.18
981.36	1607.66
981.52	1576.94
981.68	1585.13
981.85	1646.57
982.01	1673.19
982.17	1597.42
982.33	1583.08
982.49	1746.92
982.65	1576.94
982.82	1613.80
982.98	1609.70
983.14	1581.03
983.30	1640.42
983.46	1648.61
983.62	1675.24
983.79	1621.99
983.95	1581.03
984.11	1503.21
984.27	1634.28
984.43	1677.29
984.59	1611.75
984.75	1691.62
984.91	1566.70
985.08	1576.94
985.24	1542.12
985.40	1617.90
985.56	1583.08
985.72	1701.86
985.88	1626.09
986.04	1578.98
986.20	1576.94
986.37	1687.53
986.53	1576.94
986.69	1644.52
986.85	1619.94
987.01	1591.27
987.17	1687.53
987.33	1558.50
987.49	1535.98
987.65	1667.05
987.82	1628.14
987.98	1587.18
988.14	1601.51
988.30	1589.22
988.46	1611.75
988.62	1658.85
988.78	1591.27
988.94	1634.28
989.10	1617.90
989.26	1595.37
989.42	1640.42
989.59	1527.78
989.75	1611.75
989.91	1665.00
990.07	1583.08
990.23	1656.81
990.39	1665.00
990.55	1673.19
990.71	1599.46
990.87	1601.51
991.03	1665.00
991.19	1583.08
991.35	1609.70
991.51	1611.75
991.67	1634.28
991.83	1593.32
992.00	1583.08
992.16	1642.47
992.32	1640.42
992.48	1677.29
992.64	1535.98
992.80	1679.33
992.96	1630.18
993.12	1654.76
993.28	1619.94
993.44	1560.55
993.60	1662.95
993.76	1654.76
993.92	1658.85
994.08	1677.29
994.24	1646.57
994.40	1693.67
994.56	1646.57
994.72	1658.85
994.88	1599.46
995.04	1593.32
995.20	1712.10
995.36	1585.13
995.52	1570.79
995.68	1587.18
995.84	1646.57
996.00	1705.96
996.16	1617.90
996.32	1556.46
996.48	1550.31
996.64	1679.33
996.80	1583.08
996.96	1683.43
997.12	1581.03
997.28	1540.07
997.44	1603.56
997.60	1552.36
997.76	1558.50
997.92	1691.62
998.08	1544.17
998.24	1535.98
998.40	1658.85
998.56	1673.19
998.72	1501.16
998.88	1581.03
999.04	1587.18
999.20	1609.70
999.36	1550.31
999.52	1746.92
999.68	1615.85
999.84	1605.61
1000.00	1648.61
1000.16	1624.04
1000.32	1597.42
1000.48	1742.82
1000.64	1566.70
1000.80	1619.94
1000.95	1544.17
1001.11	1683.43
1001.27	1476.59
1001.43	1681.38
1001.59	1507.30
1001.75	1568.74
1001.91	1654.76
1002.07	1560.55
1002.23	1531.88
1002.39	1642.47
1002.55	1660.90
1002.71	1562.60
1002.87	1585.13
1003.03	1632.23
1003.19	1548.26
1003.34	1601.51
1003.50	1546.22
1003.66	1646.57
1003.82	1630.18
1003.98	1583.08
1004.14	1574.89
1004.30	1550.31
1004.46	1658.85
1004.62	1578.98
1004.78	1568.74
1004.94	1593.32
1005.09	1748.97
1005.25	1632.23
1005.41	1636.33
1005.57	1636.33
1005.73	1607.66
1005.89	1527.78
1006.05	1601.51
1006.21	1648.61
1006.37	1581.03
1006.52	1585.13
1006.68	1607.66
1006.84	1669.09
1007.00	1527.78
1007.16	1642.47
1007.32	1576.94
1007.48	1554.41
1007.64	1640.42
1007.79	1626.09
1007.95	1572.84
1008.11	1753.06
1008.27	1542.12
1008.43	1644.52
1008.59	1591.27
1008.75	1695.72
1008.91	1597.42
1009.06	1544.17
1009.22	1679.33
1009.38	1595.37
1009.54	1689.57
1009.70	1581.03
1009.86	1621.99
1010.01	1662.95
1010.17	1585.13
1010.33	1708.01
1010.49	1591.27
1010.65	1640.42
1010.81	1578.98
1010.96	1675.24
1011.12	1583.08
1011.28	1644.52
1011.44	1640.42
1011.60	1609.70
1011.76	1679.33
1011.91	1806.31
1012.07	1603.56
1012.23	1544.17
1012.39	1540.07
1012.55	1667.05
1012.71	1589.22
1012.86	1587.18
1013.02	1671.14
1013.18	1626.09
1013.34	1603.56
1013.50	1757.16
1013.65	1613.80
1013.81	1556.46
1013.97	1558.50
1014.13	1576.94
1014.29	1638.38
1014.44	1660.90
1014.60	1607.66
1014.76	1597.42
1014.92	1599.46
1015.07	1648.61
1015.23	1640.42
1015.39	1566.70
1015.55	1595.37
1015.71	1636.33
1015.86	1521.64
1016.02	1613.80
1016.18	1540.07
1016.34	1558.50
1016.49	1607.66
1016.65	1705.96
1016.81	1718.25
1016.97	1591.27
1017.12	1667.05
1017.28	1568.74
1017.44	1511.40
1017.60	1576.94
1017.75	1591.27
1017.91	1589.22
1018.07	1605.61
1018.23	1617.90
1018.38	1593.32
1018.54	1607.66
1018.70	1603.56
1018.86	1603.56
1019.01	1593.32
1019.17	1630.18
1019.33	1689.57
1019.49	1558.50
1019.64	1636.33
1019.80	1687.53
1019.96	1603.56
1020.12	1621.99
1020.27	1613.80
1020.43	1583.08
1020.59	1638.38
1020.74	1642.47
1020.90	1646.57
1021.06	1630.18
1021.22	1617.90
1021.37	1624.04
1021.53	1523.69
1021.69	1673.19
1021.84	1552.36
1022.00	1601.51
1022.16	1552.36
1022.31	1583.08
1022.47	1632.23
1022.63	1613.80
1022.79	1525.74
1022.94	1578.98
1023.10	1677.29
1023.26	1550.31
1023.41	1546.22
1023.57	1535.98
1023.73	1599.46
1023.88	1642.47
1024.04	1585.13
1024.20	1642.47
1024.35	1679.33
1024.51	1650.66
1024.67	1605.61
1024.82	1708.01
1024.98	1587.18
1025.14	1763.30
1025.29	1634.28
1025.45	1716.20
1025.61	1644.52
1025.76	1626.09
1025.92	1552.36
1026.08	1650.66
1026.23	1650.66
1026.39	1685.48
1026.55	1597.42
1026.70	1513.45
1026.86	1593.32
1027.02	1646.57
1027.17	1617.90
1027.33	1617.90
1027.48	1636.33
1027.64	1581.03
1027.80	1585.13
1027.95	1642.47
1028.11	1548.26
1028.27	1642.47
1028.42	1656.81
1028.58	1648.61
1028.73	1581.03
1028.89	1554.41
1029.05	1730.53
1029.20	1722.34
>>>>>End Processed Spectral Data<<<<<
