SpectraSuite Data File
++++++++++++++++++++++++++++++++++++
Date: Fri Jun 02 14:53:28 CEST 2017
User: INFO_000
Dark Spectrum Present: No
Reference Spectrum Present: No
Number of Sampled Component Spectra: 1
Spectrometers: USB4H00879
Integration Time (usec): 80000 (USB4H00879)
Spectra Averaged: 1 (USB4H00879)
Boxcar Smoothing: 0 (USB4H00879)
Correct for Electrical Dark: No (USB4H00879)
Strobe/Lamp Enabled: No (USB4H00879)
Correct for Detector Non-linearity: No (USB4H00879)
Correct for Stray Light: No (USB4H00879)
Number of Pixels in Processed Spectrum: 3648
>>>>>Begin Processed Spectral Data<<<<<
345.13	1298.41
345.34	1298.41
345.56	1298.41
345.78	1277.93
345.99	1296.36
346.21	1705.96
346.42	1773.54
346.64	1644.52
346.86	1796.07
347.07	1673.19
347.29	1781.73
347.50	1628.14
347.72	1634.28
347.94	1712.10
348.15	1613.80
348.37	1634.28
348.59	1656.81
348.80	1630.18
349.02	1716.20
349.23	1765.35
349.45	1671.14
349.67	1791.97
349.88	1640.42
350.10	1855.46
350.31	1683.43
350.53	1708.01
350.75	1941.47
350.96	1740.77
351.18	1732.58
351.39	1699.81
351.61	1636.33
351.82	1802.21
352.04	1751.01
352.26	1685.48
352.47	1673.19
352.69	1722.34
352.90	1626.09
353.12	1689.57
353.34	1710.05
353.55	1744.87
353.77	1695.72
353.98	1753.06
354.20	1705.96
354.41	1810.40
354.63	1775.59
354.85	1863.65
355.06	1689.57
355.28	1630.18
355.49	1669.09
355.71	1736.68
355.92	1644.52
356.14	1773.54
356.35	1769.44
356.57	1615.85
356.79	1843.17
357.00	1630.18
357.22	1759.21
357.43	1662.95
357.65	1759.21
357.86	1656.81
358.08	1687.53
358.29	1634.28
358.51	1781.73
358.72	1781.73
358.94	1693.67
359.16	1648.61
359.37	1765.35
359.59	1765.35
359.80	1751.01
360.02	1730.53
360.23	1714.15
360.45	1837.03
360.66	1771.49
360.88	1578.98
361.09	1757.16
361.31	1771.49
361.52	1724.39
361.74	1718.25
361.95	1859.56
362.17	1660.90
362.38	1796.07
362.60	1804.26
362.81	1712.10
363.03	1611.75
363.24	1744.87
363.46	1822.69
363.67	1720.29
363.89	1699.81
364.10	1683.43
364.32	1626.09
364.53	1726.44
364.75	1619.94
364.96	1681.38
365.18	1732.58
365.39	1763.30
365.61	1722.34
365.82	1777.64
366.04	1621.99
366.25	1656.81
366.47	1748.97
366.68	1765.35
366.90	1660.90
367.11	1683.43
367.33	1722.34
367.54	1726.44
367.76	1689.57
367.97	1818.60
368.19	1763.30
368.40	1779.68
368.62	1667.05
368.83	1621.99
369.05	1714.15
369.26	1650.66
369.48	1722.34
369.69	1665.00
369.91	1765.35
370.12	1662.95
370.33	1794.02
370.55	1599.46
370.76	1708.01
370.98	1720.29
371.19	1683.43
371.41	1605.61
371.62	1634.28
371.84	1697.77
372.05	1789.92
372.27	1626.09
372.48	1744.87
372.69	1714.15
372.91	1732.58
373.12	1734.63
373.34	1710.05
373.55	1716.20
373.77	1722.34
373.98	1738.73
374.20	1779.68
374.41	1832.93
374.62	1681.38
374.84	1671.14
375.05	1714.15
375.27	1722.34
375.48	1796.07
375.70	1751.01
375.91	1746.92
376.12	1841.12
376.34	1695.72
376.55	1810.40
376.77	1755.11
376.98	1667.05
377.19	1658.85
377.41	1632.23
377.62	1744.87
377.84	1714.15
378.05	1849.32
378.27	1681.38
378.48	1763.30
378.69	1873.89
378.91	1761.25
379.12	1740.77
379.34	1697.77
379.55	1822.69
379.76	1748.97
379.98	1708.01
380.19	1689.57
380.41	1675.24
380.62	1753.06
380.83	1787.88
381.05	1638.38
381.26	1791.97
381.47	1665.00
381.69	1621.99
381.90	1855.46
382.12	1712.10
382.33	1695.72
382.54	1703.91
382.76	1728.49
382.97	1634.28
383.19	1679.33
383.40	1712.10
383.61	1712.10
383.83	1675.24
384.04	1673.19
384.25	1634.28
384.47	1716.20
384.68	1761.25
384.89	1624.04
385.11	1650.66
385.32	1654.76
385.54	1654.76
385.75	1699.81
385.96	1632.23
386.18	1681.38
386.39	1714.15
386.60	1691.62
386.82	1671.14
387.03	1724.39
387.24	1751.01
387.46	1712.10
387.67	1679.33
387.88	1738.73
388.10	1628.14
388.31	1642.47
388.52	1761.25
388.74	1708.01
388.95	1658.85
389.16	1669.09
389.38	1638.38
389.59	1832.93
389.80	1701.86
390.02	1665.00
390.23	1753.06
390.44	1699.81
390.66	1748.97
390.87	1619.94
391.08	1757.16
391.30	1773.54
391.51	1791.97
391.72	1705.96
391.94	1722.34
392.15	1609.70
392.36	1763.30
392.58	1634.28
392.79	1695.72
393.00	1648.61
393.22	1701.86
393.43	1744.87
393.64	1789.92
393.85	1820.64
394.07	1632.23
394.28	1693.67
394.49	1656.81
394.71	1722.34
394.92	1695.72
395.13	1589.22
395.35	1730.53
395.56	1759.21
395.77	1662.95
395.98	1712.10
396.20	1777.64
396.41	1683.43
396.62	1732.58
396.84	1650.66
397.05	1613.80
397.26	1751.01
397.47	1839.08
397.69	1636.33
397.90	1931.23
398.11	1779.68
398.32	1677.29
398.54	1746.92
398.75	1695.72
398.96	1720.29
399.18	1771.49
399.39	1675.24
399.60	1777.64
399.81	1681.38
400.03	1597.42
400.24	1869.80
400.45	1748.97
400.66	1691.62
400.88	1681.38
401.09	1849.32
401.30	1712.10
401.51	1722.34
401.73	1753.06
401.94	1769.44
402.15	1724.39
402.36	1644.52
402.58	1658.85
402.79	1824.74
403.00	1683.43
403.21	1769.44
403.43	1763.30
403.64	1716.20
403.85	1691.62
404.06	1685.48
404.27	1675.24
404.49	1708.01
404.70	1695.72
404.91	1796.07
405.12	1695.72
405.34	1798.12
405.55	1875.94
405.76	1611.75
405.97	1675.24
406.19	1791.97
406.40	1654.76
406.61	1712.10
406.82	1736.68
407.03	1656.81
407.25	1662.95
407.46	1753.06
407.67	1818.60
407.88	1822.69
408.09	1683.43
408.31	1718.25
408.52	1642.47
408.73	1679.33
408.94	1695.72
409.15	1736.68
409.37	1718.25
409.58	1802.21
409.79	1703.91
410.00	1812.45
410.21	1679.33
410.43	1695.72
410.64	1673.19
410.85	1654.76
411.06	1765.35
411.27	1736.68
411.48	1830.88
411.70	1710.05
411.91	1742.82
412.12	1712.10
412.33	1812.45
412.54	1650.66
412.76	1708.01
412.97	1826.79
413.18	1628.14
413.39	1734.63
413.60	1701.86
413.81	1708.01
414.03	1630.18
414.24	1687.53
414.45	1832.93
414.66	1660.90
414.87	1695.72
415.08	1687.53
415.30	1673.19
415.51	1722.34
415.72	1693.67
415.93	1705.96
416.14	1802.21
416.35	1675.24
416.56	1716.20
416.78	1693.67
416.99	1773.54
417.20	1777.64
417.41	1832.93
417.62	1753.06
417.83	1644.52
418.04	1662.95
418.26	1699.81
418.47	1748.97
418.68	1761.25
418.89	1839.08
419.10	1886.18
419.31	1755.11
419.52	1703.91
419.73	1748.97
419.95	1794.02
420.16	1714.15
420.37	1689.57
420.58	1740.77
420.79	1544.17
421.00	1654.76
421.21	1701.86
421.42	1667.05
421.63	1722.34
421.85	1665.00
422.06	1660.90
422.27	1724.39
422.48	1718.25
422.69	1689.57
422.90	1677.29
423.11	1626.09
423.32	1812.45
423.53	1691.62
423.75	1691.62
423.96	1724.39
424.17	1722.34
424.38	1851.36
424.59	1687.53
424.80	1673.19
425.01	1736.68
425.22	1560.55
425.43	1724.39
425.64	1781.73
425.85	1779.68
426.06	1748.97
426.28	1636.33
426.49	1634.28
426.70	1621.99
426.91	1708.01
427.12	1677.29
427.33	1716.20
427.54	1724.39
427.75	1673.19
427.96	1732.58
428.17	1734.63
428.38	1654.76
428.59	1781.73
428.80	1611.75
429.01	1621.99
429.23	1673.19
429.44	1681.38
429.65	1732.58
429.86	1804.26
430.07	1730.53
430.28	1630.18
430.49	1716.20
430.70	1757.16
430.91	1796.07
431.12	1621.99
431.33	1732.58
431.54	1828.84
431.75	1644.52
431.96	1687.53
432.17	1691.62
432.38	1785.83
432.59	1710.05
432.80	1773.54
433.01	1812.45
433.22	1673.19
433.43	1691.62
433.64	1644.52
433.85	1730.53
434.06	1751.01
434.27	1632.23
434.49	1605.61
434.70	1824.74
434.91	1775.59
435.12	1720.29
435.33	1708.01
435.54	1777.64
435.75	1628.14
435.96	1763.30
436.17	1695.72
436.38	1738.73
436.59	1722.34
436.80	1665.00
437.01	1691.62
437.22	1839.08
437.43	1736.68
437.64	1634.28
437.85	1658.85
438.06	1726.44
438.27	1665.00
438.48	1669.09
438.69	1755.11
438.90	1732.58
439.11	1673.19
439.32	1767.40
439.53	1589.22
439.74	1697.77
439.95	1765.35
440.16	1619.94
440.37	1705.96
440.57	1609.70
440.78	1779.68
440.99	1726.44
441.20	1734.63
441.41	1576.94
441.62	1576.94
441.83	1607.66
442.04	1597.42
442.25	1675.24
442.46	1593.32
442.67	1667.05
442.88	1845.22
443.09	1642.47
443.30	1693.67
443.51	1703.91
443.72	1791.97
443.93	1599.46
444.14	1732.58
444.35	1740.77
444.56	1712.10
444.77	1648.61
444.98	1738.73
445.19	1712.10
445.40	1732.58
445.61	1658.85
445.81	1681.38
446.02	1830.88
446.23	1665.00
446.44	1683.43
446.65	1683.43
446.86	1726.44
447.07	1806.31
447.28	1689.57
447.49	1755.11
447.70	1705.96
447.91	1716.20
448.12	1693.67
448.33	1683.43
448.54	1712.10
448.74	1660.90
448.95	1650.66
449.16	1718.25
449.37	1712.10
449.58	1794.02
449.79	1746.92
450.00	1712.10
450.21	1675.24
450.42	1705.96
450.63	1718.25
450.84	1712.10
451.05	1806.31
451.25	1683.43
451.46	1673.19
451.67	1796.07
451.88	1671.14
452.09	1730.53
452.30	1722.34
452.51	1679.33
452.72	1787.88
452.93	1824.74
453.13	1673.19
453.34	1597.42
453.55	1716.20
453.76	1613.80
453.97	1640.42
454.18	1675.24
454.39	1720.29
454.60	1703.91
454.81	1691.62
455.01	1744.87
455.22	1568.74
455.43	1646.57
455.64	1732.58
455.85	1740.77
456.06	1740.77
456.27	1814.50
456.48	1679.33
456.68	1730.53
456.89	1753.06
457.10	1644.52
457.31	1708.01
457.52	1751.01
457.73	1646.57
457.94	1685.48
458.14	1624.04
458.35	1771.49
458.56	1720.29
458.77	1667.05
458.98	1650.66
459.19	1685.48
459.39	1679.33
459.60	1757.16
459.81	1734.63
460.02	1687.53
460.23	1669.09
460.44	1644.52
460.65	1763.30
460.85	1712.10
461.06	1626.09
461.27	1677.29
461.48	1730.53
461.69	1605.61
461.89	1564.65
462.10	1675.24
462.31	1679.33
462.52	1597.42
462.73	1636.33
462.94	1613.80
463.14	1675.24
463.35	1685.48
463.56	1753.06
463.77	1802.21
463.98	1640.42
464.18	1718.25
464.39	1748.97
464.60	1703.91
464.81	1632.23
465.02	1705.96
465.23	1740.77
465.43	1697.77
465.64	1650.66
465.85	1615.85
466.06	1681.38
466.27	1755.11
466.47	1728.49
466.68	1765.35
466.89	1615.85
467.10	1621.99
467.30	1677.29
467.51	1705.96
467.72	1851.36
467.93	1566.70
468.14	1652.71
468.34	1724.39
468.55	1695.72
468.76	1781.73
468.97	1705.96
469.17	1730.53
469.38	1814.50
469.59	1720.29
469.80	1701.86
470.01	1660.90
470.21	1691.62
470.42	1755.11
470.63	1675.24
470.84	1785.83
471.04	1646.57
471.25	1791.97
471.46	1640.42
471.67	1806.31
471.87	1673.19
472.08	1714.15
472.29	1705.96
472.50	1705.96
472.70	1708.01
472.91	1677.29
473.12	1617.90
473.33	1646.57
473.53	1683.43
473.74	1665.00
473.95	1705.96
474.16	1650.66
474.36	1576.94
474.57	1718.25
474.78	1746.92
474.99	1708.01
475.19	1710.05
475.40	1736.68
475.61	1718.25
475.81	1720.29
476.02	1759.21
476.23	1755.11
476.44	1626.09
476.64	1701.86
476.85	1685.48
477.06	1730.53
477.27	1656.81
477.47	1759.21
477.68	1695.72
477.89	1681.38
478.09	1734.63
478.30	1726.44
478.51	1710.05
478.71	1701.86
478.92	1701.86
479.13	1744.87
479.34	1607.66
479.54	1677.29
479.75	1740.77
479.96	1644.52
480.16	1609.70
480.37	1691.62
480.58	1689.57
480.78	1757.16
480.99	1613.80
481.20	1644.52
481.41	1652.71
481.61	1789.92
481.82	1703.91
482.03	1708.01
482.23	1644.52
482.44	1755.11
482.65	1857.51
482.85	1697.77
483.06	1667.05
483.27	1687.53
483.47	1761.25
483.68	1761.25
483.89	1703.91
484.09	1740.77
484.30	1724.39
484.51	1691.62
484.71	1615.85
484.92	1675.24
485.13	1734.63
485.33	1708.01
485.54	1656.81
485.75	1705.96
485.95	1738.73
486.16	1705.96
486.37	1654.76
486.57	1722.34
486.78	1697.77
486.98	1781.73
487.19	1617.90
487.40	1720.29
487.60	1624.04
487.81	1722.34
488.02	1624.04
488.22	1665.00
488.43	1789.92
488.64	1693.67
488.84	1613.80
489.05	1718.25
489.25	1685.48
489.46	1746.92
489.67	1632.23
489.87	1779.68
490.08	1671.14
490.29	1662.95
490.49	1808.36
490.70	1738.73
490.90	1705.96
491.11	1671.14
491.32	1671.14
491.52	1642.47
491.73	1650.66
491.94	1679.33
492.14	1681.38
492.35	1689.57
492.55	1751.01
492.76	1708.01
492.97	1671.14
493.17	1728.49
493.38	1755.11
493.58	1783.78
493.79	1644.52
494.00	1693.67
494.20	1634.28
494.41	1693.67
494.61	1822.69
494.82	1658.85
495.02	1605.61
495.23	1789.92
495.44	1693.67
495.64	1691.62
495.85	1652.71
496.05	1724.39
496.26	1662.95
496.47	1687.53
496.67	1644.52
496.88	1810.40
497.08	1708.01
497.29	1673.19
497.49	1769.44
497.70	1724.39
497.91	1634.28
498.11	1830.88
498.32	1712.10
498.52	1830.88
498.73	1716.20
498.93	1687.53
499.14	1720.29
499.34	1699.81
499.55	1761.25
499.76	1591.27
499.96	1720.29
500.17	1632.23
500.37	1744.87
500.58	1689.57
500.78	1660.90
500.99	1611.75
501.19	1673.19
501.40	1771.49
501.60	1658.85
501.81	1669.09
502.02	1841.12
502.22	1699.81
502.43	1662.95
502.63	1810.40
502.84	1818.60
503.04	1683.43
503.25	1703.91
503.45	1691.62
503.66	1683.43
503.86	1757.16
504.07	1650.66
504.27	1562.60
504.48	1734.63
504.68	1705.96
504.89	1765.35
505.09	1654.76
505.30	1617.90
505.50	1644.52
505.71	1720.29
505.91	1716.20
506.12	1701.86
506.32	1673.19
506.53	1634.28
506.73	1773.54
506.94	1605.61
507.14	1652.71
507.35	1744.87
507.55	1673.19
507.76	1667.05
507.96	1761.25
508.17	1763.30
508.37	1634.28
508.58	1767.40
508.78	1716.20
508.99	1802.21
509.19	1675.24
509.40	1671.14
509.60	1722.34
509.81	1746.92
510.01	1640.42
510.22	1693.67
510.42	1753.06
510.63	1757.16
510.83	1679.33
511.04	1644.52
511.24	1783.78
511.44	1675.24
511.65	1642.47
511.85	1691.62
512.06	1751.01
512.26	1652.71
512.47	1800.16
512.67	1681.38
512.88	1744.87
513.08	1675.24
513.29	1722.34
513.49	1642.47
513.69	1685.48
513.90	1662.95
514.10	1753.06
514.31	1712.10
514.51	1640.42
514.72	1628.14
514.92	1738.73
515.13	1636.33
515.33	1681.38
515.53	1685.48
515.74	1783.78
515.94	1658.85
516.15	1716.20
516.35	1615.85
516.56	1693.67
516.76	1671.14
516.96	1615.85
517.17	1740.77
517.37	1632.23
517.58	1632.23
517.78	1648.61
517.99	1769.44
518.19	1818.60
518.39	1822.69
518.60	1748.97
518.80	1648.61
519.01	1757.16
519.21	1677.29
519.41	1705.96
519.62	1691.62
519.82	1732.58
520.03	1650.66
520.23	1650.66
520.43	1652.71
520.64	1822.69
520.84	1785.83
521.05	1626.09
521.25	1759.21
521.45	1785.83
521.66	1720.29
521.86	1728.49
522.07	1689.57
522.27	1699.81
522.47	1632.23
522.68	1736.68
522.88	1687.53
523.08	1806.31
523.29	1558.50
523.49	1667.05
523.70	1636.33
523.90	1763.30
524.10	1628.14
524.31	1648.61
524.51	1566.70
524.71	1757.16
524.92	1683.43
525.12	1640.42
525.33	1742.82
525.53	1667.05
525.73	1724.39
525.94	1621.99
526.14	1740.77
526.34	1660.90
526.55	1748.97
526.75	1665.00
526.95	1796.07
527.16	1615.85
527.36	1714.15
527.56	1712.10
527.77	1669.09
527.97	1656.81
528.17	1683.43
528.38	1691.62
528.58	1669.09
528.78	1697.77
528.99	1677.29
529.19	1775.59
529.39	1634.28
529.60	1681.38
529.80	1732.58
530.00	1624.04
530.21	1669.09
530.41	1753.06
530.61	1777.64
530.82	1667.05
531.02	1767.40
531.22	1744.87
531.43	1761.25
531.63	1738.73
531.83	1644.52
532.04	1740.77
532.24	1556.46
532.44	1638.38
532.64	1794.02
532.85	1638.38
533.05	1699.81
533.25	1697.77
533.46	1687.53
533.66	1699.81
533.86	1665.00
534.07	1722.34
534.27	1693.67
534.47	1703.91
534.67	1716.20
534.88	1734.63
535.08	1724.39
535.28	1652.71
535.49	1712.10
535.69	1812.45
535.89	1736.68
536.09	1734.63
536.30	1667.05
536.50	1732.58
536.70	1785.83
536.91	1689.57
537.11	1796.07
537.31	1583.08
537.51	1710.05
537.72	1751.01
537.92	1687.53
538.12	1740.77
538.32	1736.68
538.53	1665.00
538.73	1720.29
538.93	1697.77
539.13	1699.81
539.34	1794.02
539.54	1609.70
539.74	1716.20
539.94	1769.44
540.15	1714.15
540.35	1644.52
540.55	1648.61
540.75	1636.33
540.96	1724.39
541.16	1689.57
541.36	1777.64
541.56	1720.29
541.77	1775.59
541.97	1753.06
542.17	1636.33
542.37	1810.40
542.58	1781.73
542.78	1800.16
542.98	1662.95
543.18	1789.92
543.38	1675.24
543.59	1669.09
543.79	1652.71
543.99	1607.66
544.19	1583.08
544.40	1705.96
544.60	1660.90
544.80	1693.67
545.00	1634.28
545.20	1832.93
545.41	1701.86
545.61	1636.33
545.81	1726.44
546.01	1740.77
546.21	1693.67
546.42	1650.66
546.62	1759.21
546.82	1630.18
547.02	1730.53
547.22	1712.10
547.43	1771.49
547.63	1748.97
547.83	1710.05
548.03	1693.67
548.23	1757.16
548.44	1705.96
548.64	1632.23
548.84	1726.44
549.04	1650.66
549.24	1777.64
549.45	1982.43
549.65	1644.52
549.85	1716.20
550.05	1648.61
550.25	1617.90
550.45	1748.97
550.66	1806.31
550.86	1669.09
551.06	1648.61
551.26	1636.33
551.46	1716.20
551.66	1759.21
551.87	1791.97
552.07	1611.75
552.27	1703.91
552.47	1837.03
552.67	1708.01
552.87	1695.72
553.07	1708.01
553.28	1712.10
553.48	1646.57
553.68	1650.66
553.88	1794.02
554.08	1769.44
554.28	1662.95
554.48	1669.09
554.69	1658.85
554.89	1671.14
555.09	1667.05
555.29	1619.94
555.49	1787.88
555.69	1738.73
555.89	1728.49
556.10	1683.43
556.30	1693.67
556.50	1716.20
556.70	1781.73
556.90	1740.77
557.10	1716.20
557.30	1736.68
557.50	1583.08
557.70	1687.53
557.91	1703.91
558.11	1699.81
558.31	1816.55
558.51	1667.05
558.71	1736.68
558.91	1773.54
559.11	1650.66
559.31	1591.27
559.51	1730.53
559.72	1714.15
559.92	1611.75
560.12	1714.15
560.32	1763.30
560.52	1726.44
560.72	1683.43
560.92	1748.97
561.12	1732.58
561.32	1648.61
561.52	1687.53
561.72	1908.71
561.93	1744.87
562.13	1615.85
562.33	1695.72
562.53	1681.38
562.73	1671.14
562.93	1677.29
563.13	1785.83
563.33	1734.63
563.53	1787.88
563.73	1773.54
563.93	1800.16
564.13	1871.84
564.33	1660.90
564.53	1738.73
564.74	1755.11
564.94	1638.38
565.14	1763.30
565.34	1689.57
565.54	1734.63
565.74	1714.15
565.94	1697.77
566.14	1630.18
566.34	1697.77
566.54	1677.29
566.74	1710.05
566.94	1710.05
567.14	1765.35
567.34	1703.91
567.54	1714.15
567.74	1765.35
567.94	1699.81
568.14	1685.48
568.34	1826.79
568.54	1708.01
568.74	1755.11
568.94	1693.67
569.14	1894.37
569.34	1738.73
569.54	1644.52
569.75	1687.53
569.95	1714.15
570.15	1785.83
570.35	1734.63
570.55	1662.95
570.75	1757.16
570.95	1712.10
571.15	1736.68
571.35	1673.19
571.55	1728.49
571.75	1757.16
571.95	1703.91
572.15	1689.57
572.35	1789.92
572.55	1751.01
572.75	1740.77
572.95	1621.99
573.15	1757.16
573.35	1689.57
573.55	1705.96
573.75	1671.14
573.95	1828.84
574.15	1669.09
574.35	1759.21
574.55	1648.61
574.75	1671.14
574.95	1724.39
575.15	1638.38
575.34	1632.23
575.54	1759.21
575.74	1644.52
575.94	1722.34
576.14	1621.99
576.34	1759.21
576.54	1693.67
576.74	1861.60
576.94	1685.48
577.14	1740.77
577.34	1787.88
577.54	1687.53
577.74	1624.04
577.94	1693.67
578.14	1660.90
578.34	1687.53
578.54	1515.50
578.74	1736.68
578.94	1730.53
579.14	1732.58
579.34	1607.66
579.54	1798.12
579.74	1646.57
579.94	1761.25
580.13	1669.09
580.33	1628.14
580.53	1583.08
580.73	1732.58
580.93	1710.05
581.13	1740.77
581.33	1728.49
581.53	1699.81
581.73	1773.54
581.93	1671.14
582.13	1681.38
582.33	1755.11
582.53	1656.81
582.73	1740.77
582.92	1685.48
583.12	1761.25
583.32	1613.80
583.52	1724.39
583.72	1896.42
583.92	1773.54
584.12	1755.11
584.32	1802.21
584.52	1527.78
584.72	1660.90
584.92	1687.53
585.11	1765.35
585.31	1724.39
585.51	1660.90
585.71	1669.09
585.91	1806.31
586.11	1736.68
586.31	1687.53
586.51	1638.38
586.71	1761.25
586.91	1679.33
587.10	1769.44
587.30	1710.05
587.50	1720.29
587.70	1650.66
587.90	1712.10
588.10	1640.42
588.30	1691.62
588.50	1742.82
588.69	1722.34
588.89	1689.57
589.09	1751.01
589.29	1630.18
589.49	1689.57
589.69	1699.81
589.89	1705.96
590.08	1667.05
590.28	1648.61
590.48	1667.05
590.68	1751.01
590.88	1648.61
591.08	1728.49
591.28	1630.18
591.47	1755.11
591.67	1597.42
591.87	1724.39
592.07	1822.69
592.27	1607.66
592.47	1662.95
592.67	1787.88
592.86	1665.00
593.06	1712.10
593.26	1738.73
593.46	1697.77
593.66	1638.38
593.86	1783.78
594.05	1708.01
594.25	1779.68
594.45	1677.29
594.65	1861.60
594.85	1742.82
595.05	1662.95
595.24	1753.06
595.44	1716.20
595.64	1683.43
595.84	1695.72
596.04	1640.42
596.23	1714.15
596.43	1673.19
596.63	1730.53
596.83	1665.00
597.03	1847.27
597.22	1638.38
597.42	1726.44
597.62	1724.39
597.82	1712.10
598.02	1757.16
598.21	1642.47
598.41	1671.14
598.61	1701.86
598.81	1662.95
599.01	1691.62
599.20	1679.33
599.40	1710.05
599.60	1763.30
599.80	1669.09
600.00	1777.64
600.19	1787.88
600.39	1675.24
600.59	1753.06
600.79	1736.68
600.98	1810.40
601.18	1765.35
601.38	1781.73
601.58	1716.20
601.78	1746.92
601.97	1826.79
602.17	1751.01
602.37	1562.60
602.57	1765.35
602.76	1748.97
602.96	1699.81
603.16	1624.04
603.36	1681.38
603.55	1755.11
603.75	1642.47
603.95	1681.38
604.15	1777.64
604.34	1744.87
604.54	1689.57
604.74	1728.49
604.94	1730.53
605.13	1708.01
605.33	1705.96
605.53	1667.05
605.73	1724.39
605.92	1724.39
606.12	1683.43
606.32	1730.53
606.52	1769.44
606.71	1771.49
606.91	1720.29
607.11	1636.33
607.30	1691.62
607.50	1730.53
607.70	1802.21
607.90	1720.29
608.09	1656.81
608.29	1726.44
608.49	1744.87
608.68	1640.42
608.88	1693.67
609.08	1708.01
609.28	1753.06
609.47	1685.48
609.67	1736.68
609.87	1705.96
610.06	1751.01
610.26	1677.29
610.46	1863.65
610.66	1679.33
610.85	1699.81
611.05	1751.01
611.25	1646.57
611.44	1683.43
611.64	1654.76
611.84	1765.35
612.03	1603.56
612.23	1650.66
612.43	1673.19
612.62	1820.64
612.82	1722.34
613.02	1765.35
613.21	1759.21
613.41	1757.16
613.61	1683.43
613.80	1683.43
614.00	1714.15
614.20	1781.73
614.39	1839.08
614.59	1765.35
614.79	1658.85
614.98	1699.81
615.18	1693.67
615.38	1685.48
615.57	1675.24
615.77	1832.93
615.97	1683.43
616.16	1679.33
616.36	1814.50
616.56	1716.20
616.75	1732.58
616.95	1667.05
617.15	1769.44
617.34	1626.09
617.54	1759.21
617.74	1820.64
617.93	1779.68
618.13	1650.66
618.32	1689.57
618.52	1679.33
618.72	1611.75
618.91	1765.35
619.11	1882.08
619.31	1658.85
619.50	1654.76
619.70	1642.47
619.90	1744.87
620.09	1714.15
620.29	1720.29
620.48	1748.97
620.68	1632.23
620.88	1720.29
621.07	1865.70
621.27	1767.40
621.46	1789.92
621.66	1705.96
621.86	1720.29
622.05	1665.00
622.25	1857.51
622.44	1665.00
622.64	1765.35
622.84	1708.01
623.03	1642.47
623.23	1705.96
623.42	1699.81
623.62	1738.73
623.82	1771.49
624.01	1738.73
624.21	1683.43
624.40	1796.07
624.60	1652.71
624.80	1691.62
624.99	1699.81
625.19	1724.39
625.38	1675.24
625.58	1693.67
625.77	1695.72
625.97	1775.59
626.17	1675.24
626.36	1691.62
626.56	1734.63
626.75	1626.09
626.95	1742.82
627.14	1763.30
627.34	1667.05
627.54	1753.06
627.73	1814.50
627.93	1818.60
628.12	1648.61
628.32	1697.77
628.51	1726.44
628.71	1849.32
628.90	1796.07
629.10	1744.87
629.30	1718.25
629.49	1781.73
629.69	1654.76
629.88	1708.01
630.08	1804.26
630.27	1839.08
630.47	1759.21
630.66	1605.61
630.86	1654.76
631.05	1730.53
631.25	1656.81
631.44	1806.31
631.64	1619.94
631.84	1691.62
632.03	1738.73
632.23	1726.44
632.42	1771.49
632.62	1662.95
632.81	1617.90
633.01	1730.53
633.20	1769.44
633.40	1812.45
633.59	1771.49
633.79	1730.53
633.98	1724.39
634.18	1708.01
634.37	1767.40
634.57	1683.43
634.76	1642.47
634.96	1755.11
635.15	1871.84
635.35	1738.73
635.54	1699.81
635.74	1806.31
635.93	1607.66
636.13	1667.05
636.32	1789.92
636.52	1800.16
636.71	1703.91
636.91	1773.54
637.10	1726.44
637.30	1679.33
637.49	1708.01
637.69	1779.68
637.88	1699.81
638.08	1660.90
638.27	1746.92
638.46	1757.16
638.66	1759.21
638.85	1650.66
639.05	1734.63
639.24	1781.73
639.44	1781.73
639.63	1720.29
639.83	1701.86
640.02	1710.05
640.22	1691.62
640.41	1648.61
640.61	1744.87
640.80	1699.81
640.99	1716.20
641.19	1757.16
641.38	1818.60
641.58	1705.96
641.77	1714.15
641.97	1611.75
642.16	1660.90
642.36	1671.14
642.55	1771.49
642.74	1681.38
642.94	1671.14
643.13	1675.24
643.33	1765.35
643.52	1728.49
643.72	1757.16
643.91	1628.14
644.10	1767.40
644.30	1730.53
644.49	1724.39
644.69	1724.39
644.88	1744.87
645.08	1751.01
645.27	1691.62
645.46	1554.41
645.66	1695.72
645.85	1658.85
646.05	1705.96
646.24	1662.95
646.43	1628.14
646.63	1769.44
646.82	1714.15
647.02	1771.49
647.21	1855.46
647.40	1730.53
647.60	1585.13
647.79	1748.97
647.99	1656.81
648.18	1765.35
648.37	1781.73
648.57	1734.63
648.76	1642.47
648.96	1656.81
649.15	1716.20
649.34	1884.13
649.54	1740.77
649.73	1732.58
649.92	1714.15
650.12	1736.68
650.31	1648.61
650.51	1904.61
650.70	1777.64
650.89	1628.14
651.09	1791.97
651.28	1773.54
651.47	1671.14
651.67	1740.77
651.86	1820.64
652.06	1665.00
652.25	1804.26
652.44	1632.23
652.64	1732.58
652.83	1710.05
653.02	1746.92
653.22	1726.44
653.41	1640.42
653.60	1718.25
653.80	1599.46
653.99	1761.25
654.18	1669.09
654.38	1660.90
654.57	1773.54
654.76	1699.81
654.96	1779.68
655.15	1583.08
655.34	1757.16
655.54	1662.95
655.73	1626.09
655.92	1699.81
656.12	1724.39
656.31	1712.10
656.50	1716.20
656.70	1732.58
656.89	1581.03
657.08	1630.18
657.28	1771.49
657.47	1613.80
657.66	1642.47
657.86	1685.48
658.05	1724.39
658.24	1740.77
658.43	1812.45
658.63	1652.71
658.82	1732.58
659.01	1693.67
659.21	1789.92
659.40	1673.19
659.59	1667.05
659.79	1652.71
659.98	1789.92
660.17	1724.39
660.36	1757.16
660.56	1765.35
660.75	1693.67
660.94	1714.15
661.14	1777.64
661.33	1712.10
661.52	1658.85
661.71	1765.35
661.91	1712.10
662.10	1794.02
662.29	1634.28
662.49	1624.04
662.68	1624.04
662.87	1712.10
663.06	1779.68
663.26	1613.80
663.45	1843.17
663.64	1761.25
663.83	1693.67
664.03	1839.08
664.22	1740.77
664.41	1810.40
664.60	1849.32
664.80	1624.04
664.99	1777.64
665.18	1843.17
665.37	1705.96
665.57	1839.08
665.76	1732.58
665.95	1720.29
666.14	1763.30
666.34	1705.96
666.53	1671.14
666.72	1691.62
666.91	1712.10
667.11	1746.92
667.30	1822.69
667.49	1712.10
667.68	1773.54
667.87	1771.49
668.07	1757.16
668.26	1652.71
668.45	1705.96
668.64	1693.67
668.84	1818.60
669.03	1708.01
669.22	1853.41
669.41	1703.91
669.60	1609.70
669.80	1781.73
669.99	1669.09
670.18	1732.58
670.37	1847.27
670.57	1732.58
670.76	1830.88
670.95	1779.68
671.14	1738.73
671.33	1732.58
671.53	1775.59
671.72	1718.25
671.91	1767.40
672.10	1697.77
672.29	1736.68
672.48	1720.29
672.68	1724.39
672.87	1683.43
673.06	1775.59
673.25	1710.05
673.44	1734.63
673.64	1669.09
673.83	1646.57
674.02	1632.23
674.21	1800.16
674.40	1734.63
674.59	1738.73
674.79	1718.25
674.98	1712.10
675.17	1753.06
675.36	1640.42
675.55	1697.77
675.74	1669.09
675.94	1753.06
676.13	1736.68
676.32	1712.10
676.51	1728.49
676.70	1648.61
676.89	1775.59
677.08	1726.44
677.28	1808.36
677.47	1740.77
677.66	1724.39
677.85	1642.47
678.04	1693.67
678.23	1761.25
678.42	1662.95
678.62	1722.34
678.81	1744.87
679.00	1695.72
679.19	1818.60
679.38	1732.58
679.57	1769.44
679.76	1718.25
679.96	1755.11
680.15	1800.16
680.34	1714.15
680.53	1740.77
680.72	1773.54
680.91	1691.62
681.10	1753.06
681.29	1746.92
681.48	1781.73
681.68	1738.73
681.87	1839.08
682.06	1798.12
682.25	1826.79
682.44	1716.20
682.63	1775.59
682.82	1576.94
683.01	1814.50
683.20	1722.34
683.39	1904.61
683.59	1587.18
683.78	1767.40
683.97	1679.33
684.16	1599.46
684.35	1654.76
684.54	1814.50
684.73	1728.49
684.92	1636.33
685.11	1808.36
685.30	1765.35
685.49	1712.10
685.69	1804.26
685.88	1710.05
686.07	1665.00
686.26	1753.06
686.45	1634.28
686.64	1828.84
686.83	1777.64
687.02	1785.83
687.21	1787.88
687.40	1728.49
687.59	1794.02
687.78	1712.10
687.97	1789.92
688.16	1748.97
688.35	1634.28
688.54	1699.81
688.74	1558.50
688.93	1767.40
689.12	1753.06
689.31	1880.04
689.50	1767.40
689.69	1656.81
689.88	1710.05
690.07	1656.81
690.26	1759.21
690.45	1560.55
690.64	1671.14
690.83	1751.01
691.02	1685.48
691.21	1740.77
691.40	1613.80
691.59	1714.15
691.78	1759.21
691.97	1742.82
692.16	1638.38
692.35	1724.39
692.54	1857.51
692.73	1775.59
692.92	1798.12
693.11	1693.67
693.30	1732.58
693.49	1654.76
693.68	1738.73
693.87	1765.35
694.06	1660.90
694.25	1621.99
694.44	1738.73
694.63	1687.53
694.82	1695.72
695.01	1697.77
695.20	1734.63
695.39	1714.15
695.58	1720.29
695.77	1642.47
695.96	1748.97
696.15	1699.81
696.34	1638.38
696.53	1759.21
696.72	1681.38
696.91	1718.25
697.10	1742.82
697.29	1665.00
697.48	1839.08
697.67	1769.44
697.86	1624.04
698.05	1677.29
698.24	1679.33
698.43	1748.97
698.62	1773.54
698.81	1720.29
699.00	1712.10
699.19	1810.40
699.38	1712.10
699.57	1677.29
699.76	1705.96
699.95	1667.05
700.14	1738.73
700.32	1744.87
700.51	1673.19
700.70	1687.53
700.89	1753.06
701.08	1789.92
701.27	1693.67
701.46	1892.32
701.65	1763.30
701.84	1714.15
702.03	1642.47
702.22	1816.55
702.41	1806.31
702.60	1785.83
702.79	1695.72
702.98	1708.01
703.17	1828.84
703.35	1658.85
703.54	1691.62
703.73	1720.29
703.92	1712.10
704.11	1687.53
704.30	1683.43
704.49	1773.54
704.68	1740.77
704.87	1701.86
705.06	1781.73
705.25	1703.91
705.43	1662.95
705.62	1677.29
705.81	1765.35
706.00	1812.45
706.19	1767.40
706.38	1660.90
706.57	1771.49
706.76	1658.85
706.95	1712.10
707.14	1728.49
707.32	1644.52
707.51	1628.14
707.70	1708.01
707.89	1652.71
708.08	1648.61
708.27	1728.49
708.46	1722.34
708.65	1669.09
708.84	1746.92
709.02	1691.62
709.21	1679.33
709.40	1775.59
709.59	1757.16
709.78	1644.52
709.97	1644.52
710.16	1808.36
710.34	1732.58
710.53	1783.78
710.72	1681.38
710.91	1728.49
711.10	1646.57
711.29	1691.62
711.48	1785.83
711.66	1755.11
711.85	1705.96
712.04	1794.02
712.23	1677.29
712.42	1753.06
712.61	1785.83
712.80	1671.14
712.98	1673.19
713.17	1687.53
713.36	1710.05
713.55	1849.32
713.74	1761.25
713.93	1730.53
714.11	1712.10
714.30	1607.66
714.49	1757.16
714.68	1699.81
714.87	1630.18
715.06	1859.56
715.24	1810.40
715.43	1677.29
715.62	1703.91
715.81	1574.89
716.00	1650.66
716.18	1714.15
716.37	1744.87
716.56	1703.91
716.75	1683.43
716.94	1669.09
717.12	1736.68
717.31	1708.01
717.50	1685.48
717.69	1740.77
717.88	1730.53
718.06	1675.24
718.25	1779.68
718.44	1654.76
718.63	1775.59
718.82	1593.32
719.00	1650.66
719.19	1867.75
719.38	1652.71
719.57	1716.20
719.76	1703.91
719.94	1689.57
720.13	1718.25
720.32	1845.22
720.51	1642.47
720.69	1761.25
720.88	1789.92
721.07	1693.67
721.26	1734.63
721.44	1701.86
721.63	1699.81
721.82	1820.64
722.01	1695.72
722.20	1753.06
722.38	1753.06
722.57	1691.62
722.76	1693.67
722.95	1570.79
723.13	1679.33
723.32	1691.62
723.51	1781.73
723.70	1753.06
723.88	1771.49
724.07	1634.28
724.26	1781.73
724.44	1765.35
724.63	1787.88
724.82	1728.49
725.01	1634.28
725.19	1687.53
725.38	1746.92
725.57	1691.62
725.76	1787.88
725.94	1671.14
726.13	1691.62
726.32	1658.85
726.51	1705.96
726.69	1705.96
726.88	1683.43
727.07	1726.44
727.25	1667.05
727.44	1732.58
727.63	1677.29
727.82	1705.96
728.00	1658.85
728.19	1712.10
728.38	1675.24
728.56	1609.70
728.75	1773.54
728.94	1765.35
729.12	1742.82
729.31	1705.96
729.50	1677.29
729.69	1763.30
729.87	1701.86
730.06	1673.19
730.25	1681.38
730.43	1773.54
730.62	1662.95
730.81	1662.95
730.99	1728.49
731.18	1656.81
731.37	1640.42
731.55	1665.00
731.74	1783.78
731.93	1667.05
732.11	1732.58
732.30	1673.19
732.49	1716.20
732.67	1665.00
732.86	1724.39
733.05	1660.90
733.23	1689.57
733.42	1621.99
733.61	1648.61
733.79	1732.58
733.98	1701.86
734.17	1724.39
734.35	1732.58
734.54	1718.25
734.73	1796.07
734.91	1581.03
735.10	1662.95
735.29	1777.64
735.47	1583.08
735.66	1667.05
735.84	1720.29
736.03	1640.42
736.22	1667.05
736.40	1712.10
736.59	1542.12
736.78	1617.90
736.96	1673.19
737.15	1769.44
737.33	1675.24
737.52	1716.20
737.71	1757.16
737.89	1681.38
738.08	1660.90
738.27	1724.39
738.45	1783.78
738.64	1650.66
738.82	1652.71
739.01	1712.10
739.20	1775.59
739.38	1699.81
739.57	1689.57
739.75	1734.63
739.94	1834.98
740.13	1568.74
740.31	1748.97
740.50	1728.49
740.68	1609.70
740.87	1589.22
741.06	1775.59
741.24	1693.67
741.43	1675.24
741.61	1701.86
741.80	1726.44
741.99	1699.81
742.17	1773.54
742.36	1583.08
742.54	1673.19
742.73	1806.31
742.91	1701.86
743.10	1736.68
743.29	1667.05
743.47	1755.11
743.66	1599.46
743.84	1658.85
744.03	1626.09
744.21	1658.85
744.40	1779.68
744.59	1673.19
744.77	1708.01
744.96	1699.81
745.14	1617.90
745.33	1658.85
745.51	1671.14
745.70	1716.20
745.88	1708.01
746.07	1589.22
746.26	1677.29
746.44	1671.14
746.63	1624.04
746.81	1695.72
747.00	1765.35
747.18	1701.86
747.37	1583.08
747.55	1796.07
747.74	1937.38
747.92	1806.31
748.11	1654.76
748.29	1718.25
748.48	1718.25
748.66	1667.05
748.85	1681.38
749.03	1712.10
749.22	1626.09
749.41	1576.94
749.59	1748.97
749.78	1648.61
749.96	1562.60
750.15	1658.85
750.33	1697.77
750.52	1695.72
750.70	1665.00
750.89	1761.25
751.07	1599.46
751.26	1662.95
751.44	1642.47
751.63	1679.33
751.81	1617.90
752.00	1656.81
752.18	1705.96
752.37	1761.25
752.55	1589.22
752.74	1626.09
752.92	1710.05
753.10	1685.48
753.29	1679.33
753.47	1722.34
753.66	1558.50
753.84	1638.38
754.03	1591.27
754.21	1722.34
754.40	1681.38
754.58	1787.88
754.77	1755.11
754.95	1701.86
755.14	1689.57
755.32	1646.57
755.51	1621.99
755.69	1646.57
755.88	1613.80
756.06	1697.77
756.24	1644.52
756.43	1814.50
756.61	1679.33
756.80	1654.76
756.98	1630.18
757.17	1720.29
757.35	1738.73
757.54	1681.38
757.72	1687.53
757.90	1673.19
758.09	1679.33
758.27	1628.14
758.46	1589.22
758.64	1712.10
758.83	1675.24
759.01	1753.06
759.19	1726.44
759.38	1697.77
759.56	1669.09
759.75	1679.33
759.93	1738.73
760.12	1566.70
760.30	1644.52
760.48	1685.48
760.67	1732.58
760.85	1628.14
761.04	1656.81
761.22	1742.82
761.40	1693.67
761.59	1642.47
761.77	1632.23
761.96	1726.44
762.14	1837.03
762.32	1744.87
762.51	1630.18
762.69	1687.53
762.88	1691.62
763.06	1624.04
763.24	1628.14
763.43	1681.38
763.61	1724.39
763.80	1681.38
763.98	1748.97
764.16	1601.51
764.35	1712.10
764.53	1654.76
764.72	1695.72
764.90	1671.14
765.08	1650.66
765.27	1785.83
765.45	1658.85
765.63	1652.71
765.82	1617.90
766.00	1581.03
766.18	1695.72
766.37	1632.23
766.55	1695.72
766.74	1656.81
766.92	1597.42
767.10	1587.18
767.29	1753.06
767.47	1638.38
767.65	1689.57
767.84	1746.92
768.02	1751.01
768.20	1708.01
768.39	1697.77
768.57	1720.29
768.75	1712.10
768.94	1773.54
769.12	1599.46
769.30	1705.96
769.49	1716.20
769.67	1650.66
769.85	1814.50
770.04	1638.38
770.22	1679.33
770.40	1712.10
770.59	1656.81
770.77	1775.59
770.95	1791.97
771.14	1736.68
771.32	1562.60
771.50	1568.74
771.69	1578.98
771.87	1609.70
772.05	1703.91
772.24	1628.14
772.42	1660.90
772.60	1679.33
772.78	1785.83
772.97	1638.38
773.15	1724.39
773.33	1681.38
773.52	1568.74
773.70	1662.95
773.88	1763.30
774.07	1718.25
774.25	1628.14
774.43	1753.06
774.61	1783.78
774.80	1632.23
774.98	1644.52
775.16	1601.51
775.34	1619.94
775.53	1806.31
775.71	1658.85
775.89	1652.71
776.08	1673.19
776.26	1734.63
776.44	1685.48
776.62	1636.33
776.81	1748.97
776.99	1689.57
777.17	1697.77
777.35	1652.71
777.54	1716.20
777.72	1695.72
777.90	1759.21
778.08	1679.33
778.27	1597.42
778.45	1574.89
778.63	1665.00
778.81	1705.96
779.00	1701.86
779.18	1693.67
779.36	1742.82
779.54	1695.72
779.73	1681.38
779.91	1699.81
780.09	1646.57
780.27	1662.95
780.46	1746.92
780.64	1589.22
780.82	1644.52
781.00	1675.24
781.19	1654.76
781.37	1603.56
781.55	1703.91
781.73	1691.62
781.91	1638.38
782.10	1689.57
782.28	1710.05
782.46	1708.01
782.64	1708.01
782.82	1740.77
783.01	1671.14
783.19	1748.97
783.37	1652.71
783.55	1636.33
783.74	1683.43
783.92	1603.56
784.10	1714.15
784.28	1667.05
784.46	1654.76
784.64	1648.61
784.83	1730.53
785.01	1773.54
785.19	1808.36
785.37	1662.95
785.55	1669.09
785.74	1703.91
785.92	1681.38
786.10	1617.90
786.28	1802.21
786.46	1703.91
786.64	1683.43
786.83	1578.98
787.01	1726.44
787.19	1746.92
787.37	1794.02
787.55	1677.29
787.74	1634.28
787.92	1714.15
788.10	1644.52
788.28	1613.80
788.46	1697.77
788.64	1751.01
788.82	1705.96
789.01	1662.95
789.19	1710.05
789.37	1765.35
789.55	1720.29
789.73	1593.32
789.91	1757.16
790.09	1638.38
790.28	1634.28
790.46	1699.81
790.64	1718.25
790.82	1646.57
791.00	1630.18
791.18	1732.58
791.36	1693.67
791.55	1624.04
791.73	1626.09
791.91	1603.56
792.09	1667.05
792.27	1581.03
792.45	1658.85
792.63	1742.82
792.81	1691.62
793.00	1716.20
793.18	1708.01
793.36	1771.49
793.54	1697.77
793.72	1624.04
793.90	1679.33
794.08	1566.70
794.26	1683.43
794.44	1669.09
794.62	1601.51
794.81	1656.81
794.99	1656.81
795.17	1708.01
795.35	1736.68
795.53	1646.57
795.71	1652.71
795.89	1556.46
796.07	1716.20
796.25	1705.96
796.43	1683.43
796.61	1632.23
796.80	1730.53
796.98	1626.09
797.16	1783.78
797.34	1673.19
797.52	1662.95
797.70	1687.53
797.88	1757.16
798.06	1730.53
798.24	1712.10
798.42	1619.94
798.60	1685.48
798.78	1626.09
798.96	1773.54
799.14	1658.85
799.32	1701.86
799.51	1638.38
799.69	1767.40
799.87	1748.97
800.05	1703.91
800.23	1591.27
800.41	1621.99
800.59	1699.81
800.77	1544.17
800.95	1611.75
801.13	1689.57
801.31	1691.62
801.49	1759.21
801.67	1677.29
801.85	1607.66
802.03	1630.18
802.21	1789.92
802.39	1607.66
802.57	1585.13
802.75	1718.25
802.93	1712.10
803.11	1634.28
803.29	1699.81
803.47	1703.91
803.65	1624.04
803.83	1650.66
804.01	1644.52
804.19	1667.05
804.37	1667.05
804.55	1685.48
804.73	1703.91
804.91	1609.70
805.09	1800.16
805.27	1667.05
805.45	1677.29
805.63	1677.29
805.81	1748.97
805.99	1740.77
806.17	1722.34
806.35	1607.66
806.53	1724.39
806.71	1677.29
806.89	1708.01
807.07	1710.05
807.25	1796.07
807.43	1669.09
807.61	1763.30
807.79	1720.29
807.97	1665.00
808.15	1660.90
808.33	1613.80
808.51	1765.35
808.69	1677.29
808.87	1601.51
809.05	1605.61
809.23	1601.51
809.41	1589.22
809.59	1654.76
809.77	1708.01
809.95	1691.62
810.13	1748.97
810.31	1652.71
810.49	1699.81
810.67	1650.66
810.84	1646.57
811.02	1654.76
811.20	1587.18
811.38	1740.77
811.56	1607.66
811.74	1613.80
811.92	1615.85
812.10	1652.71
812.28	1665.00
812.46	1642.47
812.64	1658.85
812.82	1648.61
813.00	1652.71
813.18	1634.28
813.36	1734.63
813.53	1736.68
813.71	1753.06
813.89	1673.19
814.07	1652.71
814.25	1720.29
814.43	1658.85
814.61	1527.78
814.79	1660.90
814.97	1603.56
815.15	1740.77
815.33	1611.75
815.50	1693.67
815.68	1597.42
815.86	1683.43
816.04	1636.33
816.22	1621.99
816.40	1703.91
816.58	1667.05
816.76	1591.27
816.94	1665.00
817.11	1562.60
817.29	1673.19
817.47	1583.08
817.65	1634.28
817.83	1724.39
818.01	1658.85
818.19	1638.38
818.37	1626.09
818.54	1732.58
818.72	1724.39
818.90	1695.72
819.08	1583.08
819.26	1763.30
819.44	1712.10
819.62	1658.85
819.80	1644.52
819.97	1691.62
820.15	1658.85
820.33	1558.50
820.51	1646.57
820.69	1675.24
820.87	1654.76
821.05	1730.53
821.22	1667.05
821.40	1667.05
821.58	1660.90
821.76	1656.81
821.94	1583.08
822.12	1628.14
822.29	1621.99
822.47	1636.33
822.65	1615.85
822.83	1581.03
823.01	1701.86
823.19	1593.32
823.36	1679.33
823.54	1581.03
823.72	1669.09
823.90	1708.01
824.08	1642.47
824.25	1675.24
824.43	1687.53
824.61	1624.04
824.79	1683.43
824.97	1669.09
825.15	1738.73
825.32	1710.05
825.50	1777.64
825.68	1611.75
825.86	1683.43
826.04	1687.53
826.21	1708.01
826.39	1619.94
826.57	1675.24
826.75	1708.01
826.93	1753.06
827.10	1689.57
827.28	1650.66
827.46	1720.29
827.64	1662.95
827.81	1730.53
827.99	1677.29
828.17	1699.81
828.35	1630.18
828.53	1687.53
828.70	1740.77
828.88	1634.28
829.06	1634.28
829.24	1626.09
829.41	1708.01
829.59	1699.81
829.77	1636.33
829.95	1767.40
830.12	1636.33
830.30	1712.10
830.48	1654.76
830.66	1605.61
830.84	1648.61
831.01	1691.62
831.19	1689.57
831.37	1685.48
831.55	1665.00
831.72	1681.38
831.90	1691.62
832.08	1632.23
832.25	1667.05
832.43	1703.91
832.61	1765.35
832.79	1589.22
832.96	1662.95
833.14	1736.68
833.32	1746.92
833.50	1583.08
833.67	1716.20
833.85	1597.42
834.03	1617.90
834.20	1597.42
834.38	1806.31
834.56	1689.57
834.74	1630.18
834.91	1687.53
835.09	1722.34
835.27	1611.75
835.44	1720.29
835.62	1568.74
835.80	1669.09
835.98	1613.80
836.15	1714.15
836.33	1589.22
836.51	1595.37
836.68	1636.33
836.86	1695.72
837.04	1677.29
837.21	1798.12
837.39	1726.44
837.57	1699.81
837.75	1679.33
837.92	1601.51
838.10	1556.46
838.28	1619.94
838.45	1691.62
838.63	1630.18
838.81	1771.49
838.98	1708.01
839.16	1720.29
839.34	1593.32
839.51	1701.86
839.69	1585.13
839.87	1642.47
840.04	1669.09
840.22	1888.23
840.40	1613.80
840.57	1615.85
840.75	1646.57
840.93	1617.90
841.10	1630.18
841.28	1738.73
841.46	1611.75
841.63	1673.19
841.81	1654.76
841.98	1593.32
842.16	1746.92
842.34	1689.57
842.51	1560.55
842.69	1650.66
842.87	1626.09
843.04	1681.38
843.22	1630.18
843.40	1603.56
843.57	1558.50
843.75	1638.38
843.92	1759.21
844.10	1708.01
844.28	1673.19
844.45	1634.28
844.63	1720.29
844.81	1632.23
844.98	1767.40
845.16	1654.76
845.33	1673.19
845.51	1671.14
845.69	1650.66
845.86	1705.96
846.04	1550.31
846.21	1624.04
846.39	1609.70
846.57	1648.61
846.74	1697.77
846.92	1693.67
847.09	1650.66
847.27	1597.42
847.45	1650.66
847.62	1689.57
847.80	1665.00
847.97	1646.57
848.15	1601.51
848.32	1607.66
848.50	1617.90
848.68	1593.32
848.85	1634.28
849.03	1587.18
849.20	1562.60
849.38	1636.33
849.56	1601.51
849.73	1560.55
849.91	1685.48
850.08	1736.68
850.26	1593.32
850.43	1654.76
850.61	1699.81
850.78	1562.60
850.96	1689.57
851.14	1556.46
851.31	1880.04
851.49	1603.56
851.66	1685.48
851.84	1574.89
852.01	1755.11
852.19	1679.33
852.36	1656.81
852.54	1734.63
852.71	1673.19
852.89	1679.33
853.07	1619.94
853.24	1662.95
853.42	1609.70
853.59	1689.57
853.77	1640.42
853.94	1691.62
854.12	1794.02
854.29	1531.88
854.47	1644.52
854.64	1671.14
854.82	1724.39
854.99	1716.20
855.17	1691.62
855.34	1621.99
855.52	1615.85
855.69	1794.02
855.87	1644.52
856.04	1626.09
856.22	1740.77
856.39	1593.32
856.57	1712.10
856.74	1544.17
856.92	1746.92
857.09	1646.57
857.27	1691.62
857.44	1621.99
857.62	1771.49
857.79	1679.33
857.97	1654.76
858.14	1624.04
858.32	1716.20
858.49	1630.18
858.67	1720.29
858.84	1640.42
859.02	1695.72
859.19	1675.24
859.37	1638.38
859.54	1591.27
859.72	1585.13
859.89	1632.23
860.06	1574.89
860.24	1685.48
860.41	1779.68
860.59	1599.46
860.76	1634.28
860.94	1517.54
861.11	1726.44
861.29	1679.33
861.46	1697.77
861.64	1687.53
861.81	1687.53
861.98	1574.89
862.16	1621.99
862.33	1626.09
862.51	1619.94
862.68	1691.62
862.86	1624.04
863.03	1673.19
863.21	1685.48
863.38	1603.56
863.55	1650.66
863.73	1685.48
863.90	1675.24
864.08	1611.75
864.25	1662.95
864.43	1679.33
864.60	1617.90
864.77	1624.04
864.95	1701.86
865.12	1585.13
865.30	1648.61
865.47	1775.59
865.64	1673.19
865.82	1699.81
865.99	1796.07
866.17	1589.22
866.34	1755.11
866.51	1562.60
866.69	1648.61
866.86	1773.54
867.04	1751.01
867.21	1597.42
867.38	1599.46
867.56	1617.90
867.73	1650.66
867.91	1658.85
868.08	1540.07
868.25	1583.08
868.43	1593.32
868.60	1607.66
868.78	1601.51
868.95	1644.52
869.12	1648.61
869.30	1705.96
869.47	1624.04
869.64	1634.28
869.82	1589.22
869.99	1671.14
870.16	1763.30
870.34	1693.67
870.51	1779.68
870.69	1593.32
870.86	1738.73
871.03	1667.05
871.21	1638.38
871.38	1720.29
871.55	1621.99
871.73	1583.08
871.90	1609.70
872.07	1675.24
872.25	1568.74
872.42	1531.88
872.59	1519.59
872.77	1603.56
872.94	1673.19
873.11	1634.28
873.29	1716.20
873.46	1646.57
873.63	1685.48
873.81	1689.57
873.98	1724.39
874.15	1689.57
874.33	1585.13
874.50	1611.75
874.67	1691.62
874.85	1562.60
875.02	1605.61
875.19	1581.03
875.37	1648.61
875.54	1626.09
875.71	1632.23
875.88	1757.16
876.06	1705.96
876.23	1708.01
876.40	1650.66
876.58	1710.05
876.75	1732.58
876.92	1667.05
877.10	1642.47
877.27	1638.38
877.44	1703.91
877.61	1689.57
877.79	1644.52
877.96	1665.00
878.13	1728.49
878.31	1673.19
878.48	1628.14
878.65	1632.23
878.82	1519.59
879.00	1697.77
879.17	1691.62
879.34	1667.05
879.51	1634.28
879.69	1585.13
879.86	1538.02
880.03	1642.47
880.21	1624.04
880.38	1716.20
880.55	1697.77
880.72	1691.62
880.90	1642.47
881.07	1605.61
881.24	1720.29
881.41	1613.80
881.59	1654.76
881.76	1736.68
881.93	1757.16
882.10	1654.76
882.28	1630.18
882.45	1685.48
882.62	1624.04
882.79	1656.81
882.96	1609.70
883.14	1660.90
883.31	1630.18
883.48	1626.09
883.65	1677.29
883.83	1644.52
884.00	1656.81
884.17	1646.57
884.34	1660.90
884.51	1673.19
884.69	1601.51
884.86	1662.95
885.03	1697.77
885.20	1544.17
885.38	1656.81
885.55	1646.57
885.72	1683.43
885.89	1589.22
886.06	1744.87
886.24	1638.38
886.41	1667.05
886.58	1679.33
886.75	1607.66
886.92	1660.90
887.10	1632.23
887.27	1626.09
887.44	1787.88
887.61	1802.21
887.78	1689.57
887.95	1673.19
888.13	1617.90
888.30	1613.80
888.47	1665.00
888.64	1701.86
888.81	1765.35
888.99	1578.98
889.16	1650.66
889.33	1601.51
889.50	1714.15
889.67	1656.81
889.84	1628.14
890.01	1720.29
890.19	1722.34
890.36	1671.14
890.53	1689.57
890.70	1607.66
890.87	1619.94
891.04	1562.60
891.22	1611.75
891.39	1574.89
891.56	1662.95
891.73	1671.14
891.90	1683.43
892.07	1511.40
892.24	1658.85
892.42	1646.57
892.59	1630.18
892.76	1730.53
892.93	1605.61
893.10	1644.52
893.27	1681.38
893.44	1601.51
893.61	1619.94
893.79	1638.38
893.96	1587.18
894.13	1615.85
894.30	1607.66
894.47	1789.92
894.64	1718.25
894.81	1619.94
894.98	1619.94
895.15	1679.33
895.33	1656.81
895.50	1640.42
895.67	1603.56
895.84	1693.67
896.01	1587.18
896.18	1499.11
896.35	1722.34
896.52	1640.42
896.69	1642.47
896.86	1656.81
897.04	1697.77
897.21	1683.43
897.38	1628.14
897.55	1679.33
897.72	1728.49
897.89	1603.56
898.06	1716.20
898.23	1621.99
898.40	1669.09
898.57	1636.33
898.74	1603.56
898.91	1646.57
899.08	1578.98
899.26	1654.76
899.43	1763.30
899.60	1615.85
899.77	1724.39
899.94	1589.22
900.11	1605.61
900.28	1630.18
900.45	1585.13
900.62	1560.55
900.79	1693.67
900.96	1703.91
901.13	1755.11
901.30	1613.80
901.47	1581.03
901.64	1621.99
901.81	1701.86
901.98	1550.31
902.15	1740.77
902.32	1589.22
902.49	1662.95
902.66	1646.57
902.83	1660.90
903.01	1624.04
903.18	1640.42
903.35	1615.85
903.52	1640.42
903.69	1728.49
903.86	1644.52
904.03	1630.18
904.20	1701.86
904.37	1626.09
904.54	1595.37
904.71	1585.13
904.88	1607.66
905.05	1556.46
905.22	1574.89
905.39	1554.41
905.56	1679.33
905.73	1595.37
905.90	1601.51
906.07	1581.03
906.24	1699.81
906.41	1658.85
906.58	1773.54
906.75	1552.36
906.92	1607.66
907.09	1583.08
907.26	1716.20
907.43	1576.94
907.60	1712.10
907.77	1630.18
907.93	1656.81
908.10	1683.43
908.27	1738.73
908.44	1628.14
908.61	1587.18
908.78	1632.23
908.95	1693.67
909.12	1671.14
909.29	1634.28
909.46	1624.04
909.63	1683.43
909.80	1662.95
909.97	1740.77
910.14	1607.66
910.31	1624.04
910.48	1669.09
910.65	1636.33
910.82	1585.13
910.99	1687.53
911.16	1619.94
911.33	1628.14
911.50	1650.66
911.66	1701.86
911.83	1662.95
912.00	1613.80
912.17	1501.16
912.34	1503.21
912.51	1685.48
912.68	1581.03
912.85	1642.47
913.02	1656.81
913.19	1660.90
913.36	1544.17
913.53	1667.05
913.70	1679.33
913.86	1669.09
914.03	1665.00
914.20	1660.90
914.37	1540.07
914.54	1714.15
914.71	1646.57
914.88	1673.19
915.05	1574.89
915.22	1642.47
915.39	1685.48
915.55	1632.23
915.72	1615.85
915.89	1556.46
916.06	1667.05
916.23	1574.89
916.40	1675.24
916.57	1617.90
916.74	1607.66
916.91	1581.03
917.07	1566.70
917.24	1554.41
917.41	1660.90
917.58	1681.38
917.75	1671.14
917.92	1466.35
918.09	1566.70
918.26	1619.94
918.42	1562.60
918.59	1644.52
918.76	1572.84
918.93	1595.37
919.10	1621.99
919.27	1757.16
919.44	1681.38
919.60	1624.04
919.77	1621.99
919.94	1607.66
920.11	1648.61
920.28	1757.16
920.45	1658.85
920.61	1531.88
920.78	1621.99
920.95	1681.38
921.12	1650.66
921.29	1593.32
921.46	1654.76
921.62	1621.99
921.79	1634.28
921.96	1658.85
922.13	1628.14
922.30	1636.33
922.47	1626.09
922.63	1658.85
922.80	1644.52
922.97	1562.60
923.14	1593.32
923.31	1585.13
923.47	1566.70
923.64	1824.74
923.81	1566.70
923.98	1716.20
924.15	1556.46
924.32	1716.20
924.48	1679.33
924.65	1708.01
924.82	1566.70
924.99	1613.80
925.15	1558.50
925.32	1755.11
925.49	1677.29
925.66	1650.66
925.83	1667.05
925.99	1603.56
926.16	1724.39
926.33	1671.14
926.50	1568.74
926.67	1585.13
926.83	1603.56
927.00	1697.77
927.17	1660.90
927.34	1681.38
927.50	1736.68
927.67	1816.55
927.84	1667.05
928.01	1601.51
928.17	1662.95
928.34	1662.95
928.51	1601.51
928.68	1677.29
928.84	1621.99
929.01	1607.66
929.18	1617.90
929.35	1708.01
929.51	1638.38
929.68	1562.60
929.85	1650.66
930.02	1642.47
930.18	1720.29
930.35	1665.00
930.52	1558.50
930.69	1644.52
930.85	1646.57
931.02	1597.42
931.19	1599.46
931.36	1621.99
931.52	1581.03
931.69	1609.70
931.86	1642.47
932.02	1595.37
932.19	1648.61
932.36	1673.19
932.53	1683.43
932.69	1630.18
932.86	1794.02
933.03	1626.09
933.19	1593.32
933.36	1615.85
933.53	1691.62
933.70	1636.33
933.86	1683.43
934.03	1703.91
934.20	1574.89
934.36	1718.25
934.53	1519.59
934.70	1611.75
934.86	1613.80
935.03	1593.32
935.20	1615.85
935.36	1685.48
935.53	1628.14
935.70	1648.61
935.86	1710.05
936.03	1558.50
936.20	1558.50
936.36	1644.52
936.53	1669.09
936.70	1617.90
936.86	1767.40
937.03	1605.61
937.20	1578.98
937.36	1703.91
937.53	1515.50
937.70	1601.51
937.86	1568.74
938.03	1675.24
938.20	1701.86
938.36	1591.27
938.53	1714.15
938.70	1585.13
938.86	1617.90
939.03	1667.05
939.20	1474.54
939.36	1535.98
939.53	1640.42
939.70	1875.94
939.86	1619.94
940.03	1646.57
940.19	1578.98
940.36	1667.05
940.53	1710.05
940.69	1624.04
940.86	1624.04
941.03	1660.90
941.19	1562.60
941.36	1624.04
941.52	1673.19
941.69	1636.33
941.86	1574.89
942.02	1712.10
942.19	1667.05
942.35	1714.15
942.52	1642.47
942.69	1648.61
942.85	1568.74
943.02	1640.42
943.18	1687.53
943.35	1628.14
943.52	1626.09
943.68	1562.60
943.85	1775.59
944.01	1617.90
944.18	1634.28
944.35	1712.10
944.51	1744.87
944.68	1535.98
944.84	1593.32
945.01	1540.07
945.17	1669.09
945.34	1658.85
945.51	1701.86
945.67	1576.94
945.84	1581.03
946.00	1613.80
946.17	1624.04
946.33	1615.85
946.50	1738.73
946.67	1640.42
946.83	1658.85
947.00	1699.81
947.16	1667.05
947.33	1634.28
947.49	1554.41
947.66	1607.66
947.82	1662.95
947.99	1603.56
948.16	1642.47
948.32	1585.13
948.49	1679.33
948.65	1697.77
948.82	1665.00
948.98	1654.76
949.15	1634.28
949.31	1671.14
949.48	1638.38
949.64	1632.23
949.81	1568.74
949.97	1632.23
950.14	1621.99
950.30	1531.88
950.47	1687.53
950.63	1650.66
950.80	1617.90
950.96	1607.66
951.13	1593.32
951.30	1646.57
951.46	1660.90
951.63	1761.25
951.79	1634.28
951.96	1675.24
952.12	1605.61
952.29	1669.09
952.45	1585.13
952.62	1605.61
952.78	1642.47
952.94	1656.81
953.11	1609.70
953.27	1562.60
953.44	1714.15
953.60	1714.15
953.77	1732.58
953.93	1640.42
954.10	1650.66
954.26	1581.03
954.43	1617.90
954.59	1757.16
954.76	1705.96
954.92	1607.66
955.09	1597.42
955.25	1607.66
955.42	1568.74
955.58	1718.25
955.75	1617.90
955.91	1499.11
956.07	1585.13
956.24	1697.77
956.40	1691.62
956.57	1638.38
956.73	1552.36
956.90	1714.15
957.06	1593.32
957.23	1667.05
957.39	1513.45
957.56	1669.09
957.72	1458.15
957.88	1613.80
958.05	1681.38
958.21	1771.49
958.38	1630.18
958.54	1572.84
958.71	1779.68
958.87	1636.33
959.03	1581.03
959.20	1624.04
959.36	1638.38
959.53	1613.80
959.69	1591.27
959.85	1611.75
960.02	1517.54
960.18	1585.13
960.35	1691.62
960.51	1716.20
960.68	1634.28
960.84	1667.05
961.00	1548.26
961.17	1609.70
961.33	1685.48
961.50	1593.32
961.66	1648.61
961.82	1607.66
961.99	1624.04
962.15	1589.22
962.31	1617.90
962.48	1667.05
962.64	1675.24
962.81	1611.75
962.97	1638.38
963.13	1630.18
963.30	1613.80
963.46	1593.32
963.62	1546.22
963.79	1720.29
963.95	1638.38
964.12	1665.00
964.28	1677.29
964.44	1552.36
964.61	1642.47
964.77	1675.24
964.93	1697.77
965.10	1587.18
965.26	1595.37
965.42	1611.75
965.59	1558.50
965.75	1621.99
965.92	1650.66
966.08	1658.85
966.24	1568.74
966.41	1585.13
966.57	1695.72
966.73	1683.43
966.90	1638.38
967.06	1630.18
967.22	1591.27
967.39	1648.61
967.55	1650.66
967.71	1605.61
967.88	1626.09
968.04	1601.51
968.20	1581.03
968.37	1662.95
968.53	1562.60
968.69	1613.80
968.85	1642.47
969.02	1673.19
969.18	1673.19
969.34	1599.46
969.51	1644.52
969.67	1732.58
969.83	1556.46
970.00	1654.76
970.16	1699.81
970.32	1658.85
970.48	1708.01
970.65	1619.94
970.81	1538.02
970.97	1675.24
971.14	1583.08
971.30	1705.96
971.46	1601.51
971.63	1669.09
971.79	1685.48
971.95	1654.76
972.11	1552.36
972.28	1636.33
972.44	1720.29
972.60	1552.36
972.76	1564.65
972.93	1568.74
973.09	1730.53
973.25	1665.00
973.42	1591.27
973.58	1642.47
973.74	1638.38
973.90	1695.72
974.07	1601.51
974.23	1619.94
974.39	1650.66
974.55	1560.55
974.72	1556.46
974.88	1585.13
975.04	1652.71
975.20	1564.65
975.37	1527.78
975.53	1662.95
975.69	1599.46
975.85	1595.37
976.01	1591.27
976.18	1626.09
976.34	1570.79
976.50	1722.34
976.66	1662.95
976.83	1665.00
976.99	1626.09
977.15	1697.77
977.31	1585.13
977.47	1724.39
977.64	1605.61
977.80	1634.28
977.96	1626.09
978.12	1630.18
978.29	1595.37
978.45	1585.13
978.61	1611.75
978.77	1673.19
978.93	1609.70
979.10	1548.26
979.26	1675.24
979.42	1609.70
979.58	1517.54
979.74	1597.42
979.91	1646.57
980.07	1499.11
980.23	1619.94
980.39	1531.88
980.55	1613.80
980.71	1626.09
980.88	1617.90
981.04	1628.14
981.20	1593.32
981.36	1683.43
981.52	1667.05
981.68	1576.94
981.85	1683.43
982.01	1603.56
982.17	1578.98
982.33	1675.24
982.49	1708.01
982.65	1535.98
982.82	1681.38
982.98	1609.70
983.14	1476.59
983.30	1675.24
983.46	1705.96
983.62	1578.98
983.79	1652.71
983.95	1595.37
984.11	1542.12
984.27	1595.37
984.43	1593.32
984.59	1564.65
984.75	1677.29
984.91	1628.14
985.08	1761.25
985.24	1630.18
985.40	1611.75
985.56	1617.90
985.72	1669.09
985.88	1683.43
986.04	1572.84
986.20	1546.22
986.37	1665.00
986.53	1656.81
986.69	1687.53
986.85	1523.69
987.01	1638.38
987.17	1644.52
987.33	1609.70
987.49	1593.32
987.65	1658.85
987.82	1597.42
987.98	1525.74
988.14	1597.42
988.30	1699.81
988.46	1644.52
988.62	1646.57
988.78	1646.57
988.94	1662.95
989.10	1662.95
989.26	1646.57
989.42	1634.28
989.59	1540.07
989.75	1630.18
989.91	1642.47
990.07	1656.81
990.23	1626.09
990.39	1617.90
990.55	1636.33
990.71	1531.88
990.87	1611.75
991.03	1699.81
991.19	1583.08
991.35	1599.46
991.51	1652.71
991.67	1597.42
991.83	1597.42
992.00	1646.57
992.16	1595.37
992.32	1658.85
992.48	1687.53
992.64	1527.78
992.80	1683.43
992.96	1548.26
993.12	1638.38
993.28	1634.28
993.44	1587.18
993.60	1613.80
993.76	1619.94
993.92	1591.27
994.08	1675.24
994.24	1671.14
994.40	1630.18
994.56	1677.29
994.72	1607.66
994.88	1546.22
995.04	1640.42
995.20	1583.08
995.36	1595.37
995.52	1683.43
995.68	1574.89
995.84	1599.46
996.00	1716.20
996.16	1601.51
996.32	1585.13
996.48	1585.13
996.64	1685.48
996.80	1630.18
996.96	1640.42
997.12	1574.89
997.28	1568.74
997.44	1564.65
997.60	1599.46
997.76	1581.03
997.92	1656.81
998.08	1501.16
998.24	1523.69
998.40	1562.60
998.56	1654.76
998.72	1478.63
998.88	1525.74
999.04	1568.74
999.20	1708.01
999.36	1638.38
999.52	1714.15
999.68	1576.94
999.84	1599.46
1000.00	1609.70
1000.16	1626.09
1000.32	1523.69
1000.48	1689.57
1000.64	1597.42
1000.80	1550.31
1000.95	1527.78
1001.11	1624.04
1001.27	1540.07
1001.43	1574.89
1001.59	1589.22
1001.75	1603.56
1001.91	1603.56
1002.07	1583.08
1002.23	1552.36
1002.39	1611.75
1002.55	1603.56
1002.71	1581.03
1002.87	1613.80
1003.03	1581.03
1003.19	1611.75
1003.34	1693.67
1003.50	1591.27
1003.66	1673.19
1003.82	1669.09
1003.98	1562.60
1004.14	1609.70
1004.30	1554.41
1004.46	1560.55
1004.62	1609.70
1004.78	1550.31
1004.94	1658.85
1005.09	1722.34
1005.25	1650.66
1005.41	1578.98
1005.57	1613.80
1005.73	1548.26
1005.89	1576.94
1006.05	1634.28
1006.21	1611.75
1006.37	1587.18
1006.52	1560.55
1006.68	1613.80
1006.84	1716.20
1007.00	1576.94
1007.16	1646.57
1007.32	1515.50
1007.48	1613.80
1007.64	1617.90
1007.79	1591.27
1007.95	1560.55
1008.11	1619.94
1008.27	1562.60
1008.43	1628.14
1008.59	1581.03
1008.75	1714.15
1008.91	1642.47
1009.06	1589.22
1009.22	1603.56
1009.38	1607.66
1009.54	1624.04
1009.70	1609.70
1009.86	1648.61
1010.01	1703.91
1010.17	1603.56
1010.33	1630.18
1010.49	1562.60
1010.65	1626.09
1010.81	1619.94
1010.96	1601.51
1011.12	1570.79
1011.28	1605.61
1011.44	1642.47
1011.60	1642.47
1011.76	1597.42
1011.91	1671.14
1012.07	1609.70
1012.23	1613.80
1012.39	1568.74
1012.55	1644.52
1012.71	1603.56
1012.86	1566.70
1013.02	1662.95
1013.18	1550.31
1013.34	1621.99
1013.50	1652.71
1013.65	1665.00
1013.81	1527.78
1013.97	1552.36
1014.13	1621.99
1014.29	1613.80
1014.44	1648.61
1014.60	1665.00
1014.76	1576.94
1014.92	1568.74
1015.07	1601.51
1015.23	1642.47
1015.39	1525.74
1015.55	1634.28
1015.71	1609.70
1015.86	1603.56
1016.02	1507.30
1016.18	1484.78
1016.34	1589.22
1016.49	1607.66
1016.65	1654.76
1016.81	1581.03
1016.97	1554.41
1017.12	1609.70
1017.28	1599.46
1017.44	1544.17
1017.60	1607.66
1017.75	1662.95
1017.91	1621.99
1018.07	1636.33
1018.23	1650.66
1018.38	1558.50
1018.54	1656.81
1018.70	1564.65
1018.86	1546.22
1019.01	1595.37
1019.17	1669.09
1019.33	1673.19
1019.49	1691.62
1019.64	1638.38
1019.80	1589.22
1019.96	1619.94
1020.12	1601.51
1020.27	1511.40
1020.43	1621.99
1020.59	1662.95
1020.74	1589.22
1020.90	1708.01
1021.06	1556.46
1021.22	1650.66
1021.37	1615.85
1021.53	1572.84
1021.69	1699.81
1021.84	1521.64
1022.00	1628.14
1022.16	1644.52
1022.31	1568.74
1022.47	1673.19
1022.63	1679.33
1022.79	1593.32
1022.94	1581.03
1023.10	1773.54
1023.26	1591.27
1023.41	1572.84
1023.57	1566.70
1023.73	1650.66
1023.88	1654.76
1024.04	1531.88
1024.20	1613.80
1024.35	1679.33
1024.51	1742.82
1024.67	1568.74
1024.82	1638.38
1024.98	1603.56
1025.14	1691.62
1025.29	1589.22
1025.45	1626.09
1025.61	1621.99
1025.76	1603.56
1025.92	1617.90
1026.08	1662.95
1026.23	1685.48
1026.39	1632.23
1026.55	1599.46
1026.70	1617.90
1026.86	1613.80
1027.02	1648.61
1027.17	1562.60
1027.33	1585.13
1027.48	1572.84
1027.64	1646.57
1027.80	1624.04
1027.95	1650.66
1028.11	1642.47
1028.27	1632.23
1028.42	1669.09
1028.58	1621.99
1028.73	1527.78
1028.89	1550.31
1029.05	1742.82
1029.20	1648.61
>>>>>End Processed Spectral Data<<<<<
