SpectraSuite Data File
++++++++++++++++++++++++++++++++++++
Date: Fri Jun 02 14:53:28 CEST 2017
User: INFO_000
Dark Spectrum Present: No
Reference Spectrum Present: No
Number of Sampled Component Spectra: 1
Spectrometers: USB4H00879
Integration Time (usec): 80000 (USB4H00879)
Spectra Averaged: 1 (USB4H00879)
Boxcar Smoothing: 0 (USB4H00879)
Correct for Electrical Dark: No (USB4H00879)
Strobe/Lamp Enabled: No (USB4H00879)
Correct for Detector Non-linearity: No (USB4H00879)
Correct for Stray Light: No (USB4H00879)
Number of Pixels in Processed Spectrum: 3648
>>>>>Begin Processed Spectral Data<<<<<
345.13	1322.99
345.34	1322.99
345.56	1322.99
345.78	1294.32
345.99	1263.60
346.21	1734.63
346.42	1738.73
346.64	1673.19
346.86	1775.59
347.07	1687.53
347.29	1755.11
347.50	1589.22
347.72	1724.39
347.94	1755.11
348.15	1490.92
348.37	1648.61
348.59	1708.01
348.80	1677.29
349.02	1669.09
349.23	1779.68
349.45	1740.77
349.67	1738.73
349.88	1667.05
350.10	1869.80
350.31	1730.53
350.53	1683.43
350.75	1861.60
350.96	1728.49
351.18	1677.29
351.39	1722.34
351.61	1667.05
351.82	1757.16
352.04	1767.40
352.26	1710.05
352.47	1738.73
352.69	1798.12
352.90	1689.57
353.12	1669.09
353.34	1718.25
353.55	1736.68
353.77	1742.82
353.98	1652.71
354.20	1626.09
354.41	1687.53
354.63	1746.92
354.85	1861.60
355.06	1720.29
355.28	1544.17
355.49	1714.15
355.71	1757.16
355.92	1748.97
356.14	1710.05
356.35	1716.20
356.57	1751.01
356.79	1775.59
357.00	1658.85
357.22	1755.11
357.43	1658.85
357.65	1787.88
357.86	1708.01
358.08	1716.20
358.29	1714.15
358.51	1794.02
358.72	1798.12
358.94	1720.29
359.16	1681.38
359.37	1753.06
359.59	1712.10
359.80	1726.44
360.02	1691.62
360.23	1824.74
360.45	1753.06
360.66	1677.29
360.88	1621.99
361.09	1619.94
361.31	1789.92
361.52	1695.72
361.74	1812.45
361.95	1828.84
362.17	1675.24
362.38	1781.73
362.60	1689.57
362.81	1671.14
363.03	1650.66
363.24	1726.44
363.46	1769.44
363.67	1785.83
363.89	1736.68
364.10	1794.02
364.32	1683.43
364.53	1847.27
364.75	1650.66
364.96	1734.63
365.18	1687.53
365.39	1761.25
365.61	1679.33
365.82	1884.13
366.04	1611.75
366.25	1593.32
366.47	1732.58
366.68	1773.54
366.90	1665.00
367.11	1722.34
367.33	1740.77
367.54	1712.10
367.76	1693.67
367.97	1755.11
368.19	1697.77
368.40	1712.10
368.62	1685.48
368.83	1652.71
369.05	1730.53
369.26	1677.29
369.48	1673.19
369.69	1679.33
369.91	1755.11
370.12	1738.73
370.33	1771.49
370.55	1621.99
370.76	1695.72
370.98	1755.11
371.19	1642.47
371.41	1691.62
371.62	1701.86
371.84	1597.42
372.05	1755.11
372.27	1634.28
372.48	1712.10
372.69	1648.61
372.91	1753.06
373.12	1740.77
373.34	1740.77
373.55	1738.73
373.77	1685.48
373.98	1716.20
374.20	1763.30
374.41	1890.28
374.62	1669.09
374.84	1736.68
375.05	1722.34
375.27	1714.15
375.48	1669.09
375.70	1703.91
375.91	1724.39
376.12	1820.64
376.34	1726.44
376.55	1652.71
376.77	1740.77
376.98	1722.34
377.19	1662.95
377.41	1654.76
377.62	1728.49
377.84	1730.53
378.05	1779.68
378.27	1607.66
378.48	1699.81
378.69	1796.07
378.91	1757.16
379.12	1720.29
379.34	1591.27
379.55	1771.49
379.76	1689.57
379.98	1687.53
380.19	1624.04
380.41	1765.35
380.62	1644.52
380.83	1636.33
381.05	1734.63
381.26	1783.78
381.47	1642.47
381.69	1748.97
381.90	1849.32
382.12	1650.66
382.33	1679.33
382.54	1710.05
382.76	1744.87
382.97	1716.20
383.19	1615.85
383.40	1730.53
383.61	1646.57
383.83	1628.14
384.04	1724.39
384.25	1699.81
384.47	1798.12
384.68	1785.83
384.89	1689.57
385.11	1599.46
385.32	1648.61
385.54	1626.09
385.75	1689.57
385.96	1726.44
386.18	1728.49
386.39	1689.57
386.60	1648.61
386.82	1673.19
387.03	1746.92
387.24	1789.92
387.46	1697.77
387.67	1818.60
387.88	1736.68
388.10	1679.33
388.31	1748.97
388.52	1662.95
388.74	1708.01
388.95	1646.57
389.16	1757.16
389.38	1654.76
389.59	1785.83
389.80	1744.87
390.02	1705.96
390.23	1816.55
390.44	1648.61
390.66	1701.86
390.87	1691.62
391.08	1685.48
391.30	1798.12
391.51	1748.97
391.72	1742.82
391.94	1705.96
392.15	1673.19
392.36	1689.57
392.58	1605.61
392.79	1658.85
393.00	1826.79
393.22	1761.25
393.43	1757.16
393.64	1820.64
393.85	1744.87
394.07	1642.47
394.28	1671.14
394.49	1722.34
394.71	1734.63
394.92	1775.59
395.13	1656.81
395.35	1669.09
395.56	1624.04
395.77	1638.38
395.98	1699.81
396.20	1705.96
396.41	1703.91
396.62	1673.19
396.84	1609.70
397.05	1726.44
397.26	1673.19
397.47	1845.22
397.69	1681.38
397.90	1787.88
398.11	1765.35
398.32	1595.37
398.54	1798.12
398.75	1662.95
398.96	1716.20
399.18	1857.51
399.39	1693.67
399.60	1728.49
399.81	1640.42
400.03	1658.85
400.24	1896.42
400.45	1759.21
400.66	1728.49
400.88	1650.66
401.09	1837.03
401.30	1705.96
401.51	1789.92
401.73	1708.01
401.94	1806.31
402.15	1736.68
402.36	1802.21
402.58	1773.54
402.79	1763.30
403.00	1710.05
403.21	1839.08
403.43	1736.68
403.64	1763.30
403.85	1718.25
404.06	1710.05
404.27	1630.18
404.49	1720.29
404.70	1597.42
404.91	1746.92
405.12	1708.01
405.34	1753.06
405.55	1781.73
405.76	1634.28
405.97	1640.42
406.19	1740.77
406.40	1542.12
406.61	1728.49
406.82	1699.81
407.03	1689.57
407.25	1646.57
407.46	1781.73
407.67	1820.64
407.88	1826.79
408.09	1744.87
408.31	1691.62
408.52	1708.01
408.73	1654.76
408.94	1656.81
409.15	1673.19
409.37	1822.69
409.58	1730.53
409.79	1646.57
410.00	1804.26
410.21	1630.18
410.43	1687.53
410.64	1609.70
410.85	1683.43
411.06	1767.40
411.27	1724.39
411.48	1748.97
411.70	1708.01
411.91	1662.95
412.12	1720.29
412.33	1863.65
412.54	1648.61
412.76	1718.25
412.97	1845.22
413.18	1726.44
413.39	1714.15
413.60	1787.88
413.81	1722.34
414.03	1581.03
414.24	1685.48
414.45	1837.03
414.66	1578.98
414.87	1751.01
415.08	1689.57
415.30	1685.48
415.51	1675.24
415.72	1712.10
415.93	1689.57
416.14	1705.96
416.35	1626.09
416.56	1746.92
416.78	1703.91
416.99	1722.34
417.20	1744.87
417.41	1765.35
417.62	1714.15
417.83	1724.39
418.04	1751.01
418.26	1787.88
418.47	1701.86
418.68	1728.49
418.89	1740.77
419.10	1896.42
419.31	1785.83
419.52	1722.34
419.73	1708.01
419.95	1695.72
420.16	1689.57
420.37	1687.53
420.58	1746.92
420.79	1574.89
421.00	1703.91
421.21	1650.66
421.42	1593.32
421.63	1761.25
421.85	1679.33
422.06	1699.81
422.27	1681.38
422.48	1689.57
422.69	1810.40
422.90	1656.81
423.11	1650.66
423.32	1802.21
423.53	1794.02
423.75	1683.43
423.96	1748.97
424.17	1734.63
424.38	1804.26
424.59	1779.68
424.80	1681.38
425.01	1751.01
425.22	1609.70
425.43	1765.35
425.64	1814.50
425.85	1818.60
426.06	1736.68
426.28	1699.81
426.49	1601.51
426.70	1607.66
426.91	1675.24
427.12	1677.29
427.33	1697.77
427.54	1703.91
427.75	1744.87
427.96	1744.87
428.17	1722.34
428.38	1781.73
428.59	1708.01
428.80	1669.09
429.01	1708.01
429.23	1578.98
429.44	1740.77
429.65	1720.29
429.86	1685.48
430.07	1693.67
430.28	1716.20
430.49	1724.39
430.70	1800.16
430.91	1781.73
431.12	1662.95
431.33	1695.72
431.54	1773.54
431.75	1695.72
431.96	1693.67
432.17	1705.96
432.38	1673.19
432.59	1830.88
432.80	1822.69
433.01	1685.48
433.22	1722.34
433.43	1791.97
433.64	1679.33
433.85	1796.07
434.06	1789.92
434.27	1591.27
434.49	1728.49
434.70	1787.88
434.91	1650.66
435.12	1701.86
435.33	1603.56
435.54	1716.20
435.75	1632.23
435.96	1734.63
436.17	1705.96
436.38	1701.86
436.59	1763.30
436.80	1609.70
437.01	1789.92
437.22	1753.06
437.43	1755.11
437.64	1656.81
437.85	1658.85
438.06	1710.05
438.27	1701.86
438.48	1734.63
438.69	1789.92
438.90	1660.90
439.11	1595.37
439.32	1728.49
439.53	1624.04
439.74	1681.38
439.95	1667.05
440.16	1724.39
440.37	1660.90
440.57	1658.85
440.78	1716.20
440.99	1699.81
441.20	1712.10
441.41	1607.66
441.62	1617.90
441.83	1611.75
442.04	1654.76
442.25	1615.85
442.46	1605.61
442.67	1634.28
442.88	1892.32
443.09	1638.38
443.30	1658.85
443.51	1624.04
443.72	1695.72
443.93	1644.52
444.14	1693.67
444.35	1660.90
444.56	1685.48
444.77	1669.09
444.98	1703.91
445.19	1724.39
445.40	1679.33
445.61	1679.33
445.81	1630.18
446.02	1855.46
446.23	1681.38
446.44	1652.71
446.65	1695.72
446.86	1748.97
447.07	1839.08
447.28	1683.43
447.49	1753.06
447.70	1671.14
447.91	1765.35
448.12	1667.05
448.33	1759.21
448.54	1656.81
448.74	1699.81
448.95	1734.63
449.16	1814.50
449.37	1773.54
449.58	1789.92
449.79	1736.68
450.00	1714.15
450.21	1728.49
450.42	1689.57
450.63	1716.20
450.84	1683.43
451.05	1687.53
451.25	1634.28
451.46	1644.52
451.67	1841.12
451.88	1708.01
452.09	1695.72
452.30	1730.53
452.51	1628.14
452.72	1761.25
452.93	1748.97
453.13	1681.38
453.34	1636.33
453.55	1703.91
453.76	1701.86
453.97	1665.00
454.18	1630.18
454.39	1763.30
454.60	1687.53
454.81	1679.33
455.01	1693.67
455.22	1587.18
455.43	1699.81
455.64	1734.63
455.85	1689.57
456.06	1753.06
456.27	1779.68
456.48	1755.11
456.68	1624.04
456.89	1734.63
457.10	1665.00
457.31	1677.29
457.52	1800.16
457.73	1603.56
457.94	1779.68
458.14	1601.51
458.35	1677.29
458.56	1705.96
458.77	1714.15
458.98	1695.72
459.19	1689.57
459.39	1656.81
459.60	1638.38
459.81	1667.05
460.02	1689.57
460.23	1679.33
460.44	1648.61
460.65	1724.39
460.85	1773.54
461.06	1613.80
461.27	1722.34
461.48	1638.38
461.69	1609.70
461.89	1576.94
462.10	1683.43
462.31	1601.51
462.52	1720.29
462.73	1712.10
462.94	1660.90
463.14	1650.66
463.35	1705.96
463.56	1818.60
463.77	1691.62
463.98	1619.94
464.18	1714.15
464.39	1812.45
464.60	1703.91
464.81	1621.99
465.02	1740.77
465.23	1675.24
465.43	1660.90
465.64	1654.76
465.85	1574.89
466.06	1708.01
466.27	1656.81
466.47	1685.48
466.68	1728.49
466.89	1662.95
467.10	1521.64
467.30	1660.90
467.51	1732.58
467.72	1755.11
467.93	1626.09
468.14	1654.76
468.34	1763.30
468.55	1705.96
468.76	1820.64
468.97	1712.10
469.17	1761.25
469.38	1828.84
469.59	1689.57
469.80	1662.95
470.01	1705.96
470.21	1703.91
470.42	1662.95
470.63	1720.29
470.84	1738.73
471.04	1693.67
471.25	1728.49
471.46	1722.34
471.67	1757.16
471.87	1669.09
472.08	1695.72
472.29	1695.72
472.50	1736.68
472.70	1710.05
472.91	1675.24
473.12	1660.90
473.33	1634.28
473.53	1757.16
473.74	1583.08
473.95	1644.52
474.16	1626.09
474.36	1611.75
474.57	1691.62
474.78	1669.09
474.99	1834.98
475.19	1675.24
475.40	1738.73
475.61	1744.87
475.81	1681.38
476.02	1593.32
476.23	1746.92
476.44	1611.75
476.64	1603.56
476.85	1689.57
477.06	1716.20
477.27	1636.33
477.47	1794.02
477.68	1671.14
477.89	1705.96
478.09	1662.95
478.30	1691.62
478.51	1667.05
478.71	1619.94
478.92	1736.68
479.13	1736.68
479.34	1658.85
479.54	1673.19
479.75	1656.81
479.96	1703.91
480.16	1697.77
480.37	1695.72
480.58	1714.15
480.78	1740.77
480.99	1634.28
481.20	1732.58
481.41	1701.86
481.61	1708.01
481.82	1796.07
482.03	1695.72
482.23	1673.19
482.44	1814.50
482.65	1851.36
482.85	1765.35
483.06	1691.62
483.27	1736.68
483.47	1683.43
483.68	1746.92
483.89	1656.81
484.09	1785.83
484.30	1730.53
484.51	1798.12
484.71	1611.75
484.92	1609.70
485.13	1779.68
485.33	1673.19
485.54	1603.56
485.75	1716.20
485.95	1722.34
486.16	1677.29
486.37	1681.38
486.57	1615.85
486.78	1695.72
486.98	1689.57
487.19	1732.58
487.40	1789.92
487.60	1724.39
487.81	1718.25
488.02	1630.18
488.22	1710.05
488.43	1769.44
488.64	1630.18
488.84	1691.62
489.05	1773.54
489.25	1644.52
489.46	1746.92
489.67	1689.57
489.87	1746.92
490.08	1738.73
490.29	1652.71
490.49	1785.83
490.70	1730.53
490.90	1751.01
491.11	1683.43
491.32	1742.82
491.52	1626.09
491.73	1665.00
491.94	1777.64
492.14	1683.43
492.35	1705.96
492.55	1779.68
492.76	1628.14
492.97	1607.66
493.17	1748.97
493.38	1681.38
493.58	1712.10
493.79	1734.63
494.00	1656.81
494.20	1595.37
494.41	1759.21
494.61	1800.16
494.82	1679.33
495.02	1601.51
495.23	1755.11
495.44	1636.33
495.64	1808.36
495.85	1638.38
496.05	1724.39
496.26	1740.77
496.47	1673.19
496.67	1689.57
496.88	1822.69
497.08	1689.57
497.29	1654.76
497.49	1761.25
497.70	1687.53
497.91	1644.52
498.11	1802.21
498.32	1675.24
498.52	1646.57
498.73	1689.57
498.93	1720.29
499.14	1724.39
499.34	1710.05
499.55	1767.40
499.76	1681.38
499.96	1761.25
500.17	1726.44
500.37	1708.01
500.58	1673.19
500.78	1642.47
500.99	1665.00
501.19	1722.34
501.40	1761.25
501.60	1564.65
501.81	1662.95
502.02	1718.25
502.22	1638.38
502.43	1716.20
502.63	1849.32
502.84	1863.65
503.04	1742.82
503.25	1740.77
503.45	1687.53
503.66	1599.46
503.86	1759.21
504.07	1775.59
504.27	1703.91
504.48	1689.57
504.68	1705.96
504.89	1853.41
505.09	1570.79
505.30	1654.76
505.50	1665.00
505.71	1691.62
505.91	1820.64
506.12	1619.94
506.32	1656.81
506.53	1636.33
506.73	1613.80
506.94	1736.68
507.14	1728.49
507.35	1796.07
507.55	1675.24
507.76	1685.48
507.96	1607.66
508.17	1798.12
508.37	1658.85
508.58	1746.92
508.78	1804.26
508.99	1853.41
509.19	1718.25
509.40	1708.01
509.60	1746.92
509.81	1712.10
510.01	1681.38
510.22	1683.43
510.42	1689.57
510.63	1812.45
510.83	1683.43
511.04	1726.44
511.24	1687.53
511.44	1632.23
511.65	1703.91
511.85	1708.01
512.06	1773.54
512.26	1748.97
512.47	1767.40
512.67	1650.66
512.88	1714.15
513.08	1591.27
513.29	1851.36
513.49	1617.90
513.69	1642.47
513.90	1609.70
514.10	1798.12
514.31	1716.20
514.51	1652.71
514.72	1732.58
514.92	1693.67
515.13	1671.14
515.33	1705.96
515.53	1667.05
515.74	1736.68
515.94	1679.33
516.15	1705.96
516.35	1554.41
516.56	1642.47
516.76	1617.90
516.96	1708.01
517.17	1730.53
517.37	1656.81
517.58	1638.38
517.78	1722.34
517.99	1775.59
518.19	1785.83
518.39	1730.53
518.60	1806.31
518.80	1679.33
519.01	1814.50
519.21	1662.95
519.41	1789.92
519.62	1642.47
519.82	1761.25
520.03	1658.85
520.23	1673.19
520.43	1638.38
520.64	1738.73
520.84	1798.12
521.05	1624.04
521.25	1648.61
521.45	1734.63
521.66	1728.49
521.86	1718.25
522.07	1685.48
522.27	1630.18
522.47	1667.05
522.68	1642.47
522.88	1689.57
523.08	1794.02
523.29	1650.66
523.49	1718.25
523.70	1642.47
523.90	1658.85
524.10	1738.73
524.31	1705.96
524.51	1556.46
524.71	1669.09
524.92	1746.92
525.12	1540.07
525.33	1759.21
525.53	1755.11
525.73	1732.58
525.94	1695.72
526.14	1689.57
526.34	1722.34
526.55	1648.61
526.75	1716.20
526.95	1884.13
527.16	1615.85
527.36	1695.72
527.56	1705.96
527.77	1720.29
527.97	1728.49
528.17	1810.40
528.38	1656.81
528.58	1722.34
528.78	1691.62
528.99	1621.99
529.19	1634.28
529.39	1675.24
529.60	1650.66
529.80	1701.86
530.00	1699.81
530.21	1699.81
530.41	1667.05
530.61	1681.38
530.82	1699.81
531.02	1728.49
531.22	1763.30
531.43	1712.10
531.63	1746.92
531.83	1619.94
532.04	1765.35
532.24	1699.81
532.44	1722.34
532.64	1728.49
532.85	1669.09
533.05	1652.71
533.25	1591.27
533.46	1689.57
533.66	1701.86
533.86	1679.33
534.07	1814.50
534.27	1693.67
534.47	1761.25
534.67	1677.29
534.88	1705.96
535.08	1765.35
535.28	1722.34
535.49	1591.27
535.69	1798.12
535.89	1746.92
536.09	1746.92
536.30	1732.58
536.50	1701.86
536.70	1736.68
536.91	1689.57
537.11	1683.43
537.31	1689.57
537.51	1705.96
537.72	1646.57
537.92	1714.15
538.12	1781.73
538.32	1730.53
538.53	1714.15
538.73	1751.01
538.93	1671.14
539.13	1673.19
539.34	1738.73
539.54	1705.96
539.74	1789.92
539.94	1642.47
540.15	1818.60
540.35	1691.62
540.55	1687.53
540.75	1634.28
540.96	1667.05
541.16	1701.86
541.36	1724.39
541.56	1703.91
541.77	1726.44
541.97	1734.63
542.17	1642.47
542.37	1798.12
542.58	1828.84
542.78	1818.60
542.98	1757.16
543.18	1710.05
543.38	1824.74
543.59	1761.25
543.79	1638.38
543.99	1710.05
544.19	1665.00
544.40	1753.06
544.60	1667.05
544.80	1693.67
545.00	1654.76
545.20	1808.36
545.41	1705.96
545.61	1634.28
545.81	1591.27
546.01	1712.10
546.21	1742.82
546.42	1718.25
546.62	1787.88
546.82	1634.28
547.02	1630.18
547.22	1669.09
547.43	1820.64
547.63	1712.10
547.83	1775.59
548.03	1689.57
548.23	1791.97
548.44	1714.15
548.64	1716.20
548.84	1667.05
549.04	1650.66
549.24	1787.88
549.45	1982.43
549.65	1634.28
549.85	1699.81
550.05	1685.48
550.25	1576.94
550.45	1736.68
550.66	1783.78
550.86	1619.94
551.06	1740.77
551.26	1677.29
551.46	1636.33
551.66	1708.01
551.87	1734.63
552.07	1701.86
552.27	1703.91
552.47	1738.73
552.67	1642.47
552.87	1712.10
553.07	1734.63
553.28	1669.09
553.48	1757.16
553.68	1660.90
553.88	1724.39
554.08	1669.09
554.28	1607.66
554.48	1691.62
554.69	1748.97
554.89	1677.29
555.09	1675.24
555.29	1607.66
555.49	1722.34
555.69	1697.77
555.89	1699.81
556.10	1665.00
556.30	1626.09
556.50	1777.64
556.70	1679.33
556.90	1748.97
557.10	1769.44
557.30	1771.49
557.50	1613.80
557.70	1705.96
557.91	1607.66
558.11	1738.73
558.31	1755.11
558.51	1716.20
558.71	1710.05
558.91	1687.53
559.11	1638.38
559.31	1648.61
559.51	1716.20
559.72	1761.25
559.92	1640.42
560.12	1654.76
560.32	1761.25
560.52	1714.15
560.72	1683.43
560.92	1744.87
561.12	1724.39
561.32	1634.28
561.52	1671.14
561.72	1845.22
561.93	1839.08
562.13	1650.66
562.33	1667.05
562.53	1705.96
562.73	1685.48
562.93	1599.46
563.13	1787.88
563.33	1730.53
563.53	1695.72
563.73	1789.92
563.93	1800.16
564.13	1843.17
564.33	1691.62
564.53	1679.33
564.74	1658.85
564.94	1703.91
565.14	1630.18
565.34	1751.01
565.54	1681.38
565.74	1710.05
565.94	1681.38
566.14	1703.91
566.34	1699.81
566.54	1722.34
566.74	1765.35
566.94	1742.82
567.14	1652.71
567.34	1716.20
567.54	1724.39
567.74	1699.81
567.94	1701.86
568.14	1679.33
568.34	1781.73
568.54	1734.63
568.74	1714.15
568.94	1675.24
569.14	1796.07
569.34	1734.63
569.54	1652.71
569.75	1691.62
569.95	1708.01
570.15	1814.50
570.35	1681.38
570.55	1652.71
570.75	1708.01
570.95	1699.81
571.15	1724.39
571.35	1570.79
571.55	1656.81
571.75	1699.81
571.95	1732.58
572.15	1642.47
572.35	1748.97
572.55	1685.48
572.75	1712.10
572.95	1617.90
573.15	1722.34
573.35	1773.54
573.55	1765.35
573.75	1714.15
573.95	1826.79
574.15	1708.01
574.35	1722.34
574.55	1654.76
574.75	1615.85
574.95	1681.38
575.15	1697.77
575.34	1695.72
575.54	1665.00
575.74	1667.05
575.94	1665.00
576.14	1658.85
576.34	1632.23
576.54	1691.62
576.74	1757.16
576.94	1613.80
577.14	1630.18
577.34	1773.54
577.54	1630.18
577.74	1626.09
577.94	1765.35
578.14	1679.33
578.34	1767.40
578.54	1605.61
578.74	1689.57
578.94	1697.77
579.14	1732.58
579.34	1628.14
579.54	1771.49
579.74	1710.05
579.94	1712.10
580.13	1710.05
580.33	1638.38
580.53	1613.80
580.73	1660.90
580.93	1763.30
581.13	1693.67
581.33	1691.62
581.53	1654.76
581.73	1658.85
581.93	1566.70
582.13	1828.84
582.33	1755.11
582.53	1675.24
582.73	1679.33
582.92	1656.81
583.12	1710.05
583.32	1648.61
583.52	1744.87
583.72	1904.61
583.92	1740.77
584.12	1705.96
584.32	1740.77
584.52	1554.41
584.72	1665.00
584.92	1646.57
585.11	1789.92
585.31	1744.87
585.51	1656.81
585.71	1775.59
585.91	1773.54
586.11	1708.01
586.31	1705.96
586.51	1615.85
586.71	1742.82
586.91	1714.15
587.10	1845.22
587.30	1789.92
587.50	1728.49
587.70	1660.90
587.90	1757.16
588.10	1632.23
588.30	1689.57
588.50	1589.22
588.69	1658.85
588.89	1695.72
589.09	1728.49
589.29	1615.85
589.49	1619.94
589.69	1642.47
589.89	1701.86
590.08	1667.05
590.28	1669.09
590.48	1722.34
590.68	1685.48
590.88	1708.01
591.08	1738.73
591.28	1697.77
591.47	1656.81
591.67	1591.27
591.87	1720.29
592.07	1800.16
592.27	1531.88
592.47	1644.52
592.67	1746.92
592.86	1595.37
593.06	1716.20
593.26	1748.97
593.46	1763.30
593.66	1560.55
593.86	1818.60
594.05	1667.05
594.25	1658.85
594.45	1619.94
594.65	1843.17
594.85	1783.78
595.05	1738.73
595.24	1646.57
595.44	1603.56
595.64	1691.62
595.84	1806.31
596.04	1673.19
596.23	1695.72
596.43	1710.05
596.63	1726.44
596.83	1708.01
597.03	1761.25
597.22	1701.86
597.42	1820.64
597.62	1785.83
597.82	1718.25
598.02	1822.69
598.21	1601.51
598.41	1648.61
598.61	1736.68
598.81	1660.90
599.01	1751.01
599.20	1728.49
599.40	1675.24
599.60	1728.49
599.80	1728.49
600.00	1808.36
600.19	1769.44
600.39	1679.33
600.59	1716.20
600.79	1744.87
600.98	1683.43
601.18	1632.23
601.38	1705.96
601.58	1716.20
601.78	1830.88
601.97	1771.49
602.17	1691.62
602.37	1619.94
602.57	1746.92
602.76	1773.54
602.96	1621.99
603.16	1591.27
603.36	1693.67
603.55	1697.77
603.75	1630.18
603.95	1650.66
604.15	1773.54
604.34	1644.52
604.54	1689.57
604.74	1824.74
604.94	1736.68
605.13	1673.19
605.33	1671.14
605.53	1583.08
605.73	1695.72
605.92	1607.66
606.12	1652.71
606.32	1679.33
606.52	1753.06
606.71	1730.53
606.91	1757.16
607.11	1716.20
607.30	1701.86
607.50	1726.44
607.70	1787.88
607.90	1712.10
608.09	1609.70
608.29	1732.58
608.49	1730.53
608.68	1640.42
608.88	1634.28
609.08	1726.44
609.28	1740.77
609.47	1685.48
609.67	1753.06
609.87	1691.62
610.06	1710.05
610.26	1632.23
610.46	1794.02
610.66	1699.81
610.85	1673.19
611.05	1789.92
611.25	1714.15
611.44	1660.90
611.64	1732.58
611.84	1716.20
612.03	1701.86
612.23	1730.53
612.43	1708.01
612.62	1662.95
612.82	1759.21
613.02	1730.53
613.21	1740.77
613.41	1785.83
613.61	1677.29
613.80	1679.33
614.00	1624.04
614.20	1724.39
614.39	1765.35
614.59	1834.98
614.79	1687.53
614.98	1699.81
615.18	1671.14
615.38	1734.63
615.57	1703.91
615.77	1757.16
615.97	1644.52
616.16	1673.19
616.36	1763.30
616.56	1699.81
616.75	1658.85
616.95	1753.06
617.15	1841.12
617.34	1716.20
617.54	1761.25
617.74	1751.01
617.93	1828.84
618.13	1759.21
618.32	1617.90
618.52	1624.04
618.72	1648.61
618.91	1779.68
619.11	1767.40
619.31	1726.44
619.50	1679.33
619.70	1648.61
619.90	1679.33
620.09	1771.49
620.29	1677.29
620.48	1824.74
620.68	1759.21
620.88	1767.40
621.07	1718.25
621.27	1671.14
621.46	1677.29
621.66	1695.72
621.86	1712.10
622.05	1626.09
622.25	1820.64
622.44	1734.63
622.64	1699.81
622.84	1630.18
623.03	1548.26
623.23	1673.19
623.42	1744.87
623.62	1753.06
623.82	1806.31
624.01	1767.40
624.21	1644.52
624.40	1751.01
624.60	1650.66
624.80	1701.86
624.99	1724.39
625.19	1679.33
625.38	1703.91
625.58	1761.25
625.77	1710.05
625.97	1806.31
626.17	1697.77
626.36	1683.43
626.56	1712.10
626.75	1632.23
626.95	1742.82
627.14	1724.39
627.34	1665.00
627.54	1683.43
627.73	1708.01
627.93	1722.34
628.12	1687.53
628.32	1794.02
628.51	1701.86
628.71	1775.59
628.90	1732.58
629.10	1689.57
629.30	1634.28
629.49	1759.21
629.69	1712.10
629.88	1640.42
630.08	1763.30
630.27	1865.70
630.47	1732.58
630.66	1679.33
630.86	1767.40
631.05	1615.85
631.25	1718.25
631.44	1679.33
631.64	1660.90
631.84	1699.81
632.03	1708.01
632.23	1679.33
632.42	1697.77
632.62	1693.67
632.81	1624.04
633.01	1689.57
633.20	1796.07
633.40	1837.03
633.59	1730.53
633.79	1722.34
633.98	1728.49
634.18	1841.12
634.37	1724.39
634.57	1710.05
634.76	1728.49
634.96	1775.59
635.15	1830.88
635.35	1718.25
635.54	1761.25
635.74	1712.10
635.93	1613.80
636.13	1710.05
636.32	1789.92
636.52	1822.69
636.71	1765.35
636.91	1705.96
637.10	1708.01
637.30	1675.24
637.49	1705.96
637.69	1744.87
637.88	1714.15
638.08	1669.09
638.27	1669.09
638.46	1703.91
638.66	1654.76
638.85	1685.48
639.05	1708.01
639.24	1781.73
639.44	1726.44
639.63	1806.31
639.83	1724.39
640.02	1689.57
640.22	1720.29
640.41	1611.75
640.61	1748.97
640.80	1695.72
640.99	1667.05
641.19	1724.39
641.38	1802.21
641.58	1630.18
641.77	1660.90
641.97	1572.84
642.16	1675.24
642.36	1740.77
642.55	1677.29
642.74	1740.77
642.94	1744.87
643.13	1677.29
643.33	1755.11
643.52	1726.44
643.72	1722.34
643.91	1718.25
644.10	1806.31
644.30	1665.00
644.49	1755.11
644.69	1726.44
644.88	1712.10
645.08	1759.21
645.27	1755.11
645.46	1626.09
645.66	1730.53
645.85	1685.48
646.05	1730.53
646.24	1671.14
646.43	1687.53
646.63	1738.73
646.82	1642.47
647.02	1718.25
647.21	1820.64
647.40	1677.29
647.60	1593.32
647.79	1802.21
647.99	1714.15
648.18	1675.24
648.37	1689.57
648.57	1705.96
648.76	1708.01
648.96	1734.63
649.15	1624.04
649.34	1822.69
649.54	1619.94
649.73	1654.76
649.92	1728.49
650.12	1738.73
650.31	1679.33
650.51	1900.52
650.70	1773.54
650.89	1695.72
651.09	1791.97
651.28	1712.10
651.47	1675.24
651.67	1748.97
651.86	1765.35
652.06	1683.43
652.25	1732.58
652.44	1564.65
652.64	1822.69
652.83	1726.44
653.02	1705.96
653.22	1681.38
653.41	1609.70
653.60	1658.85
653.80	1662.95
653.99	1757.16
654.18	1654.76
654.38	1617.90
654.57	1763.30
654.76	1763.30
654.96	1724.39
655.15	1560.55
655.34	1705.96
655.54	1654.76
655.73	1634.28
655.92	1642.47
656.12	1705.96
656.31	1812.45
656.50	1779.68
656.70	1744.87
656.89	1699.81
657.08	1576.94
657.28	1742.82
657.47	1742.82
657.66	1699.81
657.86	1634.28
658.05	1722.34
658.24	1769.44
658.43	1791.97
658.63	1638.38
658.82	1777.64
659.01	1671.14
659.21	1751.01
659.40	1722.34
659.59	1714.15
659.79	1773.54
659.98	1859.56
660.17	1748.97
660.36	1732.58
660.56	1777.64
660.75	1716.20
660.94	1695.72
661.14	1693.67
661.33	1648.61
661.52	1650.66
661.71	1732.58
661.91	1695.72
662.10	1773.54
662.29	1656.81
662.49	1638.38
662.68	1708.01
662.87	1673.19
663.06	1777.64
663.26	1722.34
663.45	1845.22
663.64	1673.19
663.83	1687.53
664.03	1794.02
664.22	1796.07
664.41	1857.51
664.60	1796.07
664.80	1597.42
664.99	1744.87
665.18	1812.45
665.37	1732.58
665.57	1705.96
665.76	1748.97
665.95	1699.81
666.14	1761.25
666.34	1744.87
666.53	1716.20
666.72	1615.85
666.91	1724.39
667.11	1662.95
667.30	1837.03
667.49	1724.39
667.68	1814.50
667.87	1685.48
668.07	1783.78
668.26	1605.61
668.45	1638.38
668.64	1640.42
668.84	1738.73
669.03	1757.16
669.22	1839.08
669.41	1759.21
669.60	1626.09
669.80	1765.35
669.99	1722.34
670.18	1734.63
670.37	1802.21
670.57	1722.34
670.76	1693.67
670.95	1791.97
671.14	1789.92
671.33	1734.63
671.53	1712.10
671.72	1773.54
671.91	1738.73
672.10	1738.73
672.29	1687.53
672.48	1634.28
672.68	1685.48
672.87	1714.15
673.06	1781.73
673.25	1650.66
673.44	1722.34
673.64	1650.66
673.83	1726.44
674.02	1652.71
674.21	1728.49
674.40	1716.20
674.59	1744.87
674.79	1718.25
674.98	1787.88
675.17	1841.12
675.36	1636.33
675.55	1667.05
675.74	1636.33
675.94	1767.40
676.13	1730.53
676.32	1699.81
676.51	1628.14
676.70	1556.46
676.89	1675.24
677.08	1662.95
677.28	1927.14
677.47	1712.10
677.66	1740.77
677.85	1601.51
678.04	1746.92
678.23	1773.54
678.42	1685.48
678.62	1693.67
678.81	1673.19
679.00	1683.43
679.19	1761.25
679.38	1716.20
679.57	1705.96
679.76	1693.67
679.96	1677.29
680.15	1730.53
680.34	1705.96
680.53	1789.92
680.72	1830.88
680.91	1615.85
681.10	1822.69
681.29	1656.81
681.48	1765.35
681.68	1781.73
681.87	1806.31
682.06	1675.24
682.25	1814.50
682.44	1644.52
682.63	1769.44
682.82	1581.03
683.01	1724.39
683.20	1746.92
683.39	1777.64
683.59	1691.62
683.78	1665.00
683.97	1677.29
684.16	1722.34
684.35	1634.28
684.54	1726.44
684.73	1703.91
684.92	1626.09
685.11	1726.44
685.30	1789.92
685.49	1757.16
685.69	1779.68
685.88	1621.99
686.07	1667.05
686.26	1724.39
686.45	1652.71
686.64	1724.39
686.83	1636.33
687.02	1679.33
687.21	1802.21
687.40	1636.33
687.59	1871.84
687.78	1720.29
687.97	1810.40
688.16	1757.16
688.35	1650.66
688.54	1677.29
688.74	1581.03
688.93	1757.16
689.12	1716.20
689.31	1785.83
689.50	1763.30
689.69	1630.18
689.88	1724.39
690.07	1703.91
690.26	1767.40
690.45	1648.61
690.64	1650.66
690.83	1628.14
691.02	1687.53
691.21	1732.58
691.40	1697.77
691.59	1699.81
691.78	1771.49
691.97	1652.71
692.16	1671.14
692.35	1703.91
692.54	1789.92
692.73	1732.58
692.92	1798.12
693.11	1769.44
693.30	1716.20
693.49	1650.66
693.68	1794.02
693.87	1726.44
694.06	1662.95
694.25	1697.77
694.44	1708.01
694.63	1675.24
694.82	1697.77
695.01	1697.77
695.20	1798.12
695.39	1710.05
695.58	1734.63
695.77	1615.85
695.96	1662.95
696.15	1701.86
696.34	1675.24
696.53	1724.39
696.72	1728.49
696.91	1695.72
697.10	1730.53
697.29	1699.81
697.48	1798.12
697.67	1753.06
697.86	1634.28
698.05	1654.76
698.24	1773.54
698.43	1689.57
698.62	1810.40
698.81	1703.91
699.00	1716.20
699.19	1828.84
699.38	1759.21
699.57	1613.80
699.76	1751.01
699.95	1636.33
700.14	1753.06
700.32	1685.48
700.51	1695.72
700.70	1679.33
700.89	1761.25
701.08	1804.26
701.27	1677.29
701.46	1730.53
701.65	1775.59
701.84	1654.76
702.03	1638.38
702.22	1751.01
702.41	1777.64
702.60	1740.77
702.79	1738.73
702.98	1619.94
703.17	1753.06
703.35	1791.97
703.54	1736.68
703.73	1667.05
703.92	1695.72
704.11	1654.76
704.30	1722.34
704.49	1753.06
704.68	1675.24
704.87	1583.08
705.06	1841.12
705.25	1662.95
705.43	1601.51
705.62	1695.72
705.81	1773.54
706.00	1746.92
706.19	1683.43
706.38	1654.76
706.57	1746.92
706.76	1624.04
706.95	1755.11
707.14	1701.86
707.32	1730.53
707.51	1683.43
707.70	1656.81
707.89	1658.85
708.08	1703.91
708.27	1662.95
708.46	1734.63
708.65	1691.62
708.84	1681.38
709.02	1701.86
709.21	1636.33
709.40	1697.77
709.59	1796.07
709.78	1716.20
709.97	1689.57
710.16	1720.29
710.34	1675.24
710.53	1775.59
710.72	1654.76
710.91	1710.05
711.10	1654.76
711.29	1689.57
711.48	1789.92
711.66	1722.34
711.85	1716.20
712.04	1718.25
712.23	1677.29
712.42	1767.40
712.61	1800.16
712.80	1656.81
712.98	1708.01
713.17	1640.42
713.36	1593.32
713.55	1822.69
713.74	1703.91
713.93	1765.35
714.11	1642.47
714.30	1607.66
714.49	1781.73
714.68	1656.81
714.87	1638.38
715.06	1800.16
715.24	1753.06
715.43	1689.57
715.62	1675.24
715.81	1699.81
716.00	1701.86
716.18	1687.53
716.37	1748.97
716.56	1671.14
716.75	1679.33
716.94	1710.05
717.12	1642.47
717.31	1736.68
717.50	1650.66
717.69	1619.94
717.88	1693.67
718.06	1742.82
718.25	1740.77
718.44	1718.25
718.63	1806.31
718.82	1628.14
719.00	1675.24
719.19	1771.49
719.38	1646.57
719.57	1718.25
719.76	1691.62
719.94	1748.97
720.13	1699.81
720.32	1832.93
720.51	1724.39
720.69	1730.53
720.88	1775.59
721.07	1724.39
721.26	1804.26
721.44	1746.92
721.63	1724.39
721.82	1720.29
722.01	1763.30
722.20	1685.48
722.38	1787.88
722.57	1621.99
722.76	1687.53
722.95	1564.65
723.13	1648.61
723.32	1720.29
723.51	1697.77
723.70	1722.34
723.88	1777.64
724.07	1593.32
724.26	1787.88
724.44	1667.05
724.63	1837.03
724.82	1703.91
725.01	1736.68
725.19	1624.04
725.38	1703.91
725.57	1683.43
725.76	1812.45
725.94	1636.33
726.13	1716.20
726.32	1648.61
726.51	1724.39
726.69	1636.33
726.88	1732.58
727.07	1757.16
727.25	1710.05
727.44	1714.15
727.63	1708.01
727.82	1611.75
728.00	1726.44
728.19	1687.53
728.38	1677.29
728.56	1667.05
728.75	1726.44
728.94	1761.25
729.12	1806.31
729.31	1656.81
729.50	1613.80
729.69	1785.83
729.87	1755.11
730.06	1638.38
730.25	1679.33
730.43	1730.53
730.62	1685.48
730.81	1697.77
730.99	1689.57
731.18	1675.24
731.37	1693.67
731.55	1667.05
731.74	1779.68
731.93	1677.29
732.11	1757.16
732.30	1705.96
732.49	1761.25
732.67	1642.47
732.86	1691.62
733.05	1662.95
733.23	1734.63
733.42	1621.99
733.61	1744.87
733.79	1771.49
733.98	1753.06
734.17	1617.90
734.35	1744.87
734.54	1708.01
734.73	1640.42
734.91	1607.66
735.10	1720.29
735.29	1716.20
735.47	1576.94
735.66	1724.39
735.84	1814.50
736.03	1669.09
736.22	1703.91
736.40	1673.19
736.59	1574.89
736.78	1650.66
736.96	1658.85
737.15	1675.24
737.33	1736.68
737.52	1689.57
737.71	1648.61
737.89	1685.48
738.08	1703.91
738.27	1816.55
738.45	1779.68
738.64	1632.23
738.82	1656.81
739.01	1642.47
739.20	1654.76
739.38	1755.11
739.57	1705.96
739.75	1757.16
739.94	1703.91
740.13	1603.56
740.31	1726.44
740.50	1718.25
740.68	1644.52
740.87	1652.71
741.06	1718.25
741.24	1759.21
741.43	1732.58
741.61	1648.61
741.80	1763.30
741.99	1658.85
742.17	1753.06
742.36	1624.04
742.54	1697.77
742.73	1738.73
742.91	1703.91
743.10	1740.77
743.29	1716.20
743.47	1720.29
743.66	1538.02
743.84	1675.24
744.03	1691.62
744.21	1716.20
744.40	1701.86
744.59	1667.05
744.77	1675.24
744.96	1654.76
745.14	1660.90
745.33	1701.86
745.51	1683.43
745.70	1738.73
745.88	1761.25
746.07	1773.54
746.26	1765.35
746.44	1667.05
746.63	1662.95
746.81	1800.16
747.00	1779.68
747.18	1662.95
747.37	1644.52
747.55	1699.81
747.74	1980.39
747.92	1691.62
748.11	1785.83
748.29	1662.95
748.48	1794.02
748.66	1716.20
748.85	1736.68
749.03	1693.67
749.22	1662.95
749.41	1714.15
749.59	1748.97
749.78	1703.91
749.96	1531.88
750.15	1652.71
750.33	1751.01
750.52	1585.13
750.70	1703.91
750.89	1726.44
751.07	1683.43
751.26	1675.24
751.44	1703.91
751.63	1763.30
751.81	1634.28
752.00	1574.89
752.18	1642.47
752.37	1796.07
752.55	1619.94
752.74	1632.23
752.92	1716.20
753.10	1638.38
753.29	1736.68
753.47	1701.86
753.66	1609.70
753.84	1689.57
754.03	1667.05
754.21	1638.38
754.40	1722.34
754.58	1742.82
754.77	1728.49
754.95	1677.29
755.14	1740.77
755.32	1642.47
755.51	1654.76
755.69	1691.62
755.88	1568.74
756.06	1785.83
756.24	1683.43
756.43	1714.15
756.61	1665.00
756.80	1636.33
756.98	1617.90
757.17	1722.34
757.35	1765.35
757.54	1667.05
757.72	1611.75
757.90	1716.20
758.09	1699.81
758.27	1630.18
758.46	1585.13
758.64	1712.10
758.83	1638.38
759.01	1738.73
759.19	1712.10
759.38	1656.81
759.56	1683.43
759.75	1617.90
759.93	1720.29
760.12	1701.86
760.30	1712.10
760.48	1624.04
760.67	1728.49
760.85	1656.81
761.04	1609.70
761.22	1740.77
761.40	1671.14
761.59	1621.99
761.77	1675.24
761.96	1732.58
762.14	1589.22
762.32	1699.81
762.51	1665.00
762.69	1654.76
762.88	1791.97
763.06	1642.47
763.24	1699.81
763.43	1697.77
763.61	1665.00
763.80	1662.95
763.98	1718.25
764.16	1591.27
764.35	1687.53
764.53	1671.14
764.72	1703.91
764.90	1769.44
765.08	1621.99
765.27	1789.92
765.45	1662.95
765.63	1665.00
765.82	1703.91
766.00	1673.19
766.18	1689.57
766.37	1617.90
766.55	1642.47
766.74	1687.53
766.92	1628.14
767.10	1636.33
767.29	1769.44
767.47	1693.67
767.65	1652.71
767.84	1708.01
768.02	1769.44
768.20	1667.05
768.39	1738.73
768.57	1699.81
768.75	1613.80
768.94	1794.02
769.12	1626.09
769.30	1677.29
769.49	1728.49
769.67	1603.56
769.85	1777.64
770.04	1574.89
770.22	1654.76
770.40	1679.33
770.59	1679.33
770.77	1744.87
770.95	1763.30
771.14	1718.25
771.32	1597.42
771.50	1685.48
771.69	1601.51
771.87	1728.49
772.05	1681.38
772.24	1636.33
772.42	1726.44
772.60	1650.66
772.78	1685.48
772.97	1632.23
773.15	1697.77
773.33	1675.24
773.52	1556.46
773.70	1656.81
773.88	1720.29
774.07	1687.53
774.25	1648.61
774.43	1701.86
774.61	1738.73
774.80	1675.24
774.98	1650.66
775.16	1708.01
775.34	1638.38
775.53	1734.63
775.71	1699.81
775.89	1718.25
776.08	1695.72
776.26	1689.57
776.44	1642.47
776.62	1665.00
776.81	1621.99
776.99	1761.25
777.17	1650.66
777.35	1742.82
777.54	1705.96
777.72	1675.24
777.90	1675.24
778.08	1601.51
778.27	1691.62
778.45	1626.09
778.63	1638.38
778.81	1685.48
779.00	1728.49
779.18	1701.86
779.36	1710.05
779.54	1677.29
779.73	1650.66
779.91	1621.99
780.09	1638.38
780.27	1679.33
780.46	1642.47
780.64	1611.75
780.82	1687.53
781.00	1710.05
781.19	1687.53
781.37	1693.67
781.55	1720.29
781.73	1693.67
781.91	1662.95
782.10	1703.91
782.28	1730.53
782.46	1679.33
782.64	1734.63
782.82	1714.15
783.01	1740.77
783.19	1699.81
783.37	1689.57
783.55	1638.38
783.74	1720.29
783.92	1658.85
784.10	1662.95
784.28	1716.20
784.46	1703.91
784.64	1605.61
784.83	1714.15
785.01	1800.16
785.19	1718.25
785.37	1693.67
785.55	1691.62
785.74	1679.33
785.92	1636.33
786.10	1597.42
786.28	1757.16
786.46	1728.49
786.64	1576.94
786.83	1601.51
787.01	1705.96
787.19	1779.68
787.37	1689.57
787.55	1650.66
787.74	1564.65
787.92	1710.05
788.10	1683.43
788.28	1656.81
788.46	1718.25
788.64	1697.77
788.82	1632.23
789.01	1658.85
789.19	1720.29
789.37	1740.77
789.55	1667.05
789.73	1628.14
789.91	1621.99
790.09	1736.68
790.28	1615.85
790.46	1660.90
790.64	1673.19
790.82	1630.18
791.00	1658.85
791.18	1671.14
791.36	1740.77
791.55	1691.62
791.73	1597.42
791.91	1589.22
792.09	1656.81
792.27	1542.12
792.45	1679.33
792.63	1744.87
792.81	1732.58
793.00	1732.58
793.18	1701.86
793.36	1722.34
793.54	1650.66
793.72	1679.33
793.90	1732.58
794.08	1521.64
794.26	1689.57
794.44	1578.98
794.62	1619.94
794.81	1609.70
794.99	1687.53
795.17	1728.49
795.35	1587.18
795.53	1617.90
795.71	1773.54
795.89	1615.85
796.07	1730.53
796.25	1656.81
796.43	1761.25
796.61	1597.42
796.80	1642.47
796.98	1691.62
797.16	1751.01
797.34	1619.94
797.52	1619.94
797.70	1779.68
797.88	1757.16
798.06	1574.89
798.24	1705.96
798.42	1650.66
798.60	1652.71
798.78	1652.71
798.96	1734.63
799.14	1624.04
799.32	1765.35
799.51	1611.75
799.69	1740.77
799.87	1642.47
800.05	1714.15
800.23	1593.32
800.41	1656.81
800.59	1765.35
800.77	1665.00
800.95	1605.61
801.13	1734.63
801.31	1660.90
801.49	1734.63
801.67	1656.81
801.85	1650.66
802.03	1683.43
802.21	1667.05
802.39	1585.13
802.57	1665.00
802.75	1693.67
802.93	1673.19
803.11	1652.71
803.29	1722.34
803.47	1699.81
803.65	1632.23
803.83	1621.99
804.01	1683.43
804.19	1644.52
804.37	1699.81
804.55	1562.60
804.73	1699.81
804.91	1583.08
805.09	1716.20
805.27	1691.62
805.45	1673.19
805.63	1638.38
805.81	1736.68
805.99	1720.29
806.17	1691.62
806.35	1650.66
806.53	1591.27
806.71	1757.16
806.89	1638.38
807.07	1791.97
807.25	1689.57
807.43	1685.48
807.61	1765.35
807.79	1648.61
807.97	1695.72
808.15	1687.53
808.33	1757.16
808.51	1777.64
808.69	1677.29
808.87	1621.99
809.05	1601.51
809.23	1607.66
809.41	1654.76
809.59	1609.70
809.77	1681.38
809.95	1665.00
810.13	1734.63
810.31	1740.77
810.49	1722.34
810.67	1685.48
810.84	1703.91
811.02	1599.46
811.20	1624.04
811.38	1728.49
811.56	1525.74
811.74	1660.90
811.92	1652.71
812.10	1687.53
812.28	1734.63
812.46	1667.05
812.64	1652.71
812.82	1609.70
813.00	1613.80
813.18	1583.08
813.36	1671.14
813.53	1683.43
813.71	1660.90
813.89	1662.95
814.07	1654.76
814.25	1683.43
814.43	1630.18
814.61	1626.09
814.79	1628.14
814.97	1710.05
815.15	1765.35
815.33	1652.71
815.50	1654.76
815.68	1560.55
815.86	1626.09
816.04	1732.58
816.22	1662.95
816.40	1679.33
816.58	1691.62
816.76	1699.81
816.94	1658.85
817.11	1626.09
817.29	1708.01
817.47	1644.52
817.65	1576.94
817.83	1687.53
818.01	1611.75
818.19	1630.18
818.37	1691.62
818.54	1769.44
818.72	1695.72
818.90	1679.33
819.08	1644.52
819.26	1738.73
819.44	1794.02
819.62	1619.94
819.80	1581.03
819.97	1734.63
820.15	1574.89
820.33	1552.36
820.51	1591.27
820.69	1716.20
820.87	1740.77
821.05	1746.92
821.22	1675.24
821.40	1648.61
821.58	1716.20
821.76	1632.23
821.94	1589.22
822.12	1679.33
822.29	1710.05
822.47	1658.85
822.65	1638.38
822.83	1583.08
823.01	1703.91
823.19	1671.14
823.36	1654.76
823.54	1634.28
823.72	1693.67
823.90	1718.25
824.08	1626.09
824.25	1671.14
824.43	1640.42
824.61	1554.41
824.79	1636.33
824.97	1589.22
825.15	1658.85
825.32	1609.70
825.50	1728.49
825.68	1595.37
825.86	1716.20
826.04	1697.77
826.21	1755.11
826.39	1607.66
826.57	1714.15
826.75	1691.62
826.93	1748.97
827.10	1681.38
827.28	1607.66
827.46	1695.72
827.64	1740.77
827.81	1669.09
827.99	1642.47
828.17	1630.18
828.35	1597.42
828.53	1644.52
828.70	1607.66
828.88	1621.99
829.06	1662.95
829.24	1667.05
829.41	1615.85
829.59	1773.54
829.77	1640.42
829.95	1734.63
830.12	1558.50
830.30	1675.24
830.48	1656.81
830.66	1576.94
830.84	1581.03
831.01	1753.06
831.19	1617.90
831.37	1687.53
831.55	1726.44
831.72	1701.86
831.90	1675.24
832.08	1652.71
832.25	1693.67
832.43	1638.38
832.61	1839.08
832.79	1578.98
832.96	1699.81
833.14	1716.20
833.32	1820.64
833.50	1621.99
833.67	1642.47
833.85	1585.13
834.03	1617.90
834.20	1687.53
834.38	1832.93
834.56	1720.29
834.74	1632.23
834.91	1628.14
835.09	1683.43
835.27	1578.98
835.44	1708.01
835.62	1638.38
835.80	1576.94
835.98	1613.80
836.15	1644.52
836.33	1542.12
836.51	1617.90
836.68	1630.18
836.86	1656.81
837.04	1732.58
837.21	1845.22
837.39	1701.86
837.57	1759.21
837.75	1757.16
837.92	1701.86
838.10	1634.28
838.28	1632.23
838.45	1710.05
838.63	1544.17
838.81	1773.54
838.98	1703.91
839.16	1716.20
839.34	1669.09
839.51	1656.81
839.69	1609.70
839.87	1619.94
840.04	1701.86
840.22	1847.27
840.40	1642.47
840.57	1605.61
840.75	1593.32
840.93	1644.52
841.10	1683.43
841.28	1693.67
841.46	1650.66
841.63	1757.16
841.81	1593.32
841.98	1581.03
842.16	1834.98
842.34	1654.76
842.51	1517.54
842.69	1697.77
842.87	1677.29
843.04	1679.33
843.22	1595.37
843.40	1601.51
843.57	1621.99
843.75	1681.38
843.92	1726.44
844.10	1673.19
844.28	1681.38
844.45	1601.51
844.63	1734.63
844.81	1726.44
844.98	1730.53
845.16	1730.53
845.33	1662.95
845.51	1697.77
845.69	1708.01
845.86	1728.49
846.04	1626.09
846.21	1667.05
846.39	1576.94
846.57	1613.80
846.74	1632.23
846.92	1671.14
847.09	1574.89
847.27	1642.47
847.45	1662.95
847.62	1691.62
847.80	1644.52
847.97	1662.95
848.15	1564.65
848.32	1581.03
848.50	1687.53
848.68	1572.84
848.85	1673.19
849.03	1636.33
849.20	1599.46
849.38	1660.90
849.56	1626.09
849.73	1509.35
849.91	1726.44
850.08	1720.29
850.26	1617.90
850.43	1646.57
850.61	1667.05
850.78	1546.22
850.96	1703.91
851.14	1566.70
851.31	1798.12
851.49	1693.67
851.66	1695.72
851.84	1572.84
852.01	1697.77
852.19	1638.38
852.36	1685.48
852.54	1628.14
852.71	1681.38
852.89	1687.53
853.07	1667.05
853.24	1601.51
853.42	1662.95
853.59	1603.56
853.77	1646.57
853.94	1634.28
854.12	1761.25
854.29	1585.13
854.47	1601.51
854.64	1632.23
854.82	1724.39
854.99	1689.57
855.17	1619.94
855.34	1587.18
855.52	1759.21
855.69	1845.22
855.87	1607.66
856.04	1695.72
856.22	1703.91
856.39	1640.42
856.57	1667.05
856.74	1669.09
856.92	1722.34
857.09	1624.04
857.27	1632.23
857.44	1705.96
857.62	1759.21
857.79	1667.05
857.97	1740.77
858.14	1630.18
858.32	1669.09
858.49	1624.04
858.67	1757.16
858.84	1652.71
859.02	1763.30
859.19	1648.61
859.37	1554.41
859.54	1574.89
859.72	1595.37
859.89	1695.72
860.06	1519.59
860.24	1628.14
860.41	1712.10
860.59	1626.09
860.76	1611.75
860.94	1515.50
861.11	1759.21
861.29	1675.24
861.46	1636.33
861.64	1621.99
861.81	1746.92
861.98	1642.47
862.16	1630.18
862.33	1671.14
862.51	1599.46
862.68	1716.20
862.86	1636.33
863.03	1615.85
863.21	1607.66
863.38	1658.85
863.55	1646.57
863.73	1671.14
863.90	1621.99
864.08	1621.99
864.25	1640.42
864.43	1599.46
864.60	1648.61
864.77	1656.81
864.95	1675.24
865.12	1513.45
865.30	1695.72
865.47	1677.29
865.64	1746.92
865.82	1652.71
865.99	1771.49
866.17	1697.77
866.34	1765.35
866.51	1538.02
866.69	1697.77
866.86	1800.16
867.04	1748.97
867.21	1697.77
867.38	1568.74
867.56	1746.92
867.73	1630.18
867.91	1720.29
868.08	1566.70
868.25	1607.66
868.43	1576.94
868.60	1642.47
868.78	1572.84
868.95	1689.57
869.12	1667.05
869.30	1581.03
869.47	1681.38
869.64	1671.14
869.82	1656.81
869.99	1646.57
870.16	1742.82
870.34	1689.57
870.51	1773.54
870.69	1529.83
870.86	1638.38
871.03	1677.29
871.21	1624.04
871.38	1767.40
871.55	1677.29
871.73	1681.38
871.90	1646.57
872.07	1519.59
872.25	1611.75
872.42	1554.41
872.59	1581.03
872.77	1679.33
872.94	1619.94
873.11	1638.38
873.29	1781.73
873.46	1703.91
873.63	1634.28
873.81	1683.43
873.98	1683.43
874.15	1531.88
874.33	1519.59
874.50	1675.24
874.67	1689.57
874.85	1683.43
875.02	1591.27
875.19	1527.78
875.37	1638.38
875.54	1560.55
875.71	1654.76
875.88	1646.57
876.06	1644.52
876.23	1642.47
876.40	1714.15
876.58	1583.08
876.75	1751.01
876.92	1591.27
877.10	1656.81
877.27	1691.62
877.44	1712.10
877.61	1652.71
877.79	1685.48
877.96	1669.09
878.13	1689.57
878.31	1544.17
878.48	1646.57
878.65	1677.29
878.82	1593.32
879.00	1621.99
879.17	1636.33
879.34	1519.59
879.51	1624.04
879.69	1642.47
879.86	1613.80
880.03	1624.04
880.21	1562.60
880.38	1636.33
880.55	1621.99
880.72	1640.42
880.90	1658.85
881.07	1597.42
881.24	1759.21
881.41	1558.50
881.59	1630.18
881.76	1765.35
881.93	1765.35
882.10	1697.77
882.28	1701.86
882.45	1662.95
882.62	1669.09
882.79	1734.63
882.96	1630.18
883.14	1628.14
883.31	1691.62
883.48	1576.94
883.65	1617.90
883.83	1667.05
884.00	1712.10
884.17	1611.75
884.34	1667.05
884.51	1687.53
884.69	1652.71
884.86	1626.09
885.03	1667.05
885.20	1544.17
885.38	1681.38
885.55	1699.81
885.72	1683.43
885.89	1515.50
886.06	1703.91
886.24	1628.14
886.41	1593.32
886.58	1642.47
886.75	1683.43
886.92	1599.46
887.10	1552.36
887.27	1628.14
887.44	1654.76
887.61	1759.21
887.78	1746.92
887.95	1724.39
888.13	1601.51
888.30	1585.13
888.47	1671.14
888.64	1619.94
888.81	1720.29
888.99	1599.46
889.16	1695.72
889.33	1646.57
889.50	1654.76
889.67	1621.99
889.84	1673.19
890.01	1675.24
890.19	1683.43
890.36	1683.43
890.53	1632.23
890.70	1572.84
890.87	1685.48
891.04	1613.80
891.22	1652.71
891.39	1587.18
891.56	1691.62
891.73	1732.58
891.90	1689.57
892.07	1535.98
892.24	1621.99
892.42	1665.00
892.59	1626.09
892.76	1673.19
892.93	1578.98
893.10	1619.94
893.27	1626.09
893.44	1595.37
893.61	1615.85
893.79	1630.18
893.96	1605.61
894.13	1685.48
894.30	1601.51
894.47	1742.82
894.64	1695.72
894.81	1576.94
894.98	1568.74
895.15	1665.00
895.33	1675.24
895.50	1658.85
895.67	1566.70
895.84	1695.72
896.01	1652.71
896.18	1611.75
896.35	1740.77
896.52	1642.47
896.69	1572.84
896.86	1669.09
897.04	1722.34
897.21	1691.62
897.38	1607.66
897.55	1597.42
897.72	1576.94
897.89	1669.09
898.06	1679.33
898.23	1535.98
898.40	1681.38
898.57	1593.32
898.74	1585.13
898.91	1603.56
899.08	1619.94
899.26	1607.66
899.43	1740.77
899.60	1644.52
899.77	1740.77
899.94	1581.03
900.11	1660.90
900.28	1626.09
900.45	1646.57
900.62	1550.31
900.79	1759.21
900.96	1722.34
901.13	1705.96
901.30	1632.23
901.47	1583.08
901.64	1624.04
901.81	1736.68
901.98	1591.27
902.15	1621.99
902.32	1548.26
902.49	1621.99
902.66	1681.38
902.83	1667.05
903.01	1634.28
903.18	1574.89
903.35	1617.90
903.52	1650.66
903.69	1689.57
903.86	1640.42
904.03	1626.09
904.20	1724.39
904.37	1646.57
904.54	1605.61
904.71	1646.57
904.88	1675.24
905.05	1626.09
905.22	1597.42
905.39	1597.42
905.56	1525.74
905.73	1583.08
905.90	1654.76
906.07	1634.28
906.24	1677.29
906.41	1531.88
906.58	1730.53
906.75	1482.73
906.92	1564.65
907.09	1585.13
907.26	1652.71
907.43	1609.70
907.60	1646.57
907.77	1630.18
907.93	1728.49
908.10	1568.74
908.27	1765.35
908.44	1679.33
908.61	1587.18
908.78	1662.95
908.95	1724.39
909.12	1677.29
909.29	1640.42
909.46	1562.60
909.63	1708.01
909.80	1574.89
909.97	1740.77
910.14	1624.04
910.31	1568.74
910.48	1605.61
910.65	1574.89
910.82	1640.42
910.99	1589.22
911.16	1585.13
911.33	1535.98
911.50	1654.76
911.66	1667.05
911.83	1697.77
912.00	1673.19
912.17	1562.60
912.34	1558.50
912.51	1673.19
912.68	1640.42
912.85	1679.33
913.02	1677.29
913.19	1642.47
913.36	1716.20
913.53	1669.09
913.70	1589.22
913.86	1748.97
914.03	1681.38
914.20	1730.53
914.37	1572.84
914.54	1662.95
914.71	1705.96
914.88	1683.43
915.05	1523.69
915.22	1609.70
915.39	1687.53
915.55	1712.10
915.72	1497.07
915.89	1597.42
916.06	1714.15
916.23	1644.52
916.40	1601.51
916.57	1626.09
916.74	1687.53
916.91	1642.47
917.07	1613.80
917.24	1638.38
917.41	1628.14
917.58	1595.37
917.75	1648.61
917.92	1570.79
918.09	1634.28
918.26	1634.28
918.42	1593.32
918.59	1671.14
918.76	1603.56
918.93	1662.95
919.10	1638.38
919.27	1638.38
919.44	1771.49
919.60	1728.49
919.77	1630.18
919.94	1675.24
920.11	1699.81
920.28	1761.25
920.45	1603.56
920.61	1562.60
920.78	1636.33
920.95	1679.33
921.12	1658.85
921.29	1585.13
921.46	1576.94
921.62	1591.27
921.79	1724.39
921.96	1650.66
922.13	1691.62
922.30	1679.33
922.47	1621.99
922.63	1697.77
922.80	1671.14
922.97	1609.70
923.14	1548.26
923.31	1638.38
923.47	1662.95
923.64	1808.36
923.81	1583.08
923.98	1683.43
924.15	1525.74
924.32	1658.85
924.48	1675.24
924.65	1765.35
924.82	1529.83
924.99	1587.18
925.15	1533.93
925.32	1732.58
925.49	1624.04
925.66	1638.38
925.83	1599.46
925.99	1640.42
926.16	1746.92
926.33	1630.18
926.50	1517.54
926.67	1587.18
926.83	1607.66
927.00	1722.34
927.17	1642.47
927.34	1624.04
927.50	1689.57
927.67	1757.16
927.84	1681.38
928.01	1656.81
928.17	1656.81
928.34	1636.33
928.51	1626.09
928.68	1572.84
928.84	1632.23
929.01	1609.70
929.18	1576.94
929.35	1597.42
929.51	1648.61
929.68	1601.51
929.85	1660.90
930.02	1648.61
930.18	1607.66
930.35	1691.62
930.52	1605.61
930.69	1636.33
930.85	1710.05
931.02	1572.84
931.19	1640.42
931.36	1628.14
931.52	1624.04
931.69	1607.66
931.86	1601.51
932.02	1658.85
932.19	1601.51
932.36	1734.63
932.53	1634.28
932.69	1652.71
932.86	1728.49
933.03	1617.90
933.19	1558.50
933.36	1613.80
933.53	1683.43
933.70	1656.81
933.86	1738.73
934.03	1673.19
934.20	1576.94
934.36	1708.01
934.53	1576.94
934.70	1568.74
934.86	1583.08
935.03	1585.13
935.20	1679.33
935.36	1646.57
935.53	1597.42
935.70	1515.50
935.86	1705.96
936.03	1566.70
936.20	1484.78
936.36	1564.65
936.53	1650.66
936.70	1640.42
936.86	1746.92
937.03	1705.96
937.20	1568.74
937.36	1716.20
937.53	1558.50
937.70	1548.26
937.86	1552.36
938.03	1560.55
938.20	1734.63
938.36	1607.66
938.53	1669.09
938.70	1527.78
938.86	1638.38
939.03	1667.05
939.20	1566.70
939.36	1693.67
939.53	1691.62
939.70	1748.97
939.86	1576.94
940.03	1624.04
940.19	1621.99
940.36	1701.86
940.53	1673.19
940.69	1617.90
940.86	1626.09
941.03	1568.74
941.19	1548.26
941.36	1632.23
941.52	1658.85
941.69	1712.10
941.86	1595.37
942.02	1673.19
942.19	1708.01
942.35	1683.43
942.52	1656.81
942.69	1597.42
942.85	1533.93
943.02	1662.95
943.18	1673.19
943.35	1626.09
943.52	1665.00
943.68	1632.23
943.85	1744.87
944.01	1652.71
944.18	1638.38
944.35	1720.29
944.51	1603.56
944.68	1544.17
944.84	1665.00
945.01	1568.74
945.17	1681.38
945.34	1662.95
945.51	1634.28
945.67	1658.85
945.84	1609.70
946.00	1552.36
946.17	1683.43
946.33	1603.56
946.50	1714.15
946.67	1665.00
946.83	1613.80
947.00	1624.04
947.16	1654.76
947.33	1581.03
947.49	1544.17
947.66	1546.22
947.82	1634.28
947.99	1638.38
948.16	1658.85
948.32	1648.61
948.49	1609.70
948.65	1646.57
948.82	1683.43
948.98	1660.90
949.15	1595.37
949.31	1593.32
949.48	1646.57
949.64	1638.38
949.81	1599.46
949.97	1640.42
950.14	1660.90
950.30	1568.74
950.47	1593.32
950.63	1593.32
950.80	1613.80
950.96	1650.66
951.13	1665.00
951.30	1654.76
951.46	1601.51
951.63	1691.62
951.79	1667.05
951.96	1646.57
952.12	1593.32
952.29	1742.82
952.45	1617.90
952.62	1683.43
952.78	1734.63
952.94	1644.52
953.11	1640.42
953.27	1441.77
953.44	1746.92
953.60	1603.56
953.77	1630.18
953.93	1638.38
954.10	1640.42
954.26	1695.72
954.43	1656.81
954.59	1742.82
954.76	1738.73
954.92	1601.51
955.09	1609.70
955.25	1619.94
955.42	1621.99
955.58	1712.10
955.75	1624.04
955.91	1630.18
956.07	1642.47
956.24	1615.85
956.40	1652.71
956.57	1679.33
956.73	1697.77
956.90	1621.99
957.06	1583.08
957.23	1648.61
957.39	1621.99
957.56	1644.52
957.72	1574.89
957.88	1566.70
958.05	1638.38
958.21	1669.09
958.38	1675.24
958.54	1624.04
958.71	1652.71
958.87	1576.94
959.03	1634.28
959.20	1634.28
959.36	1542.12
959.53	1607.66
959.69	1599.46
959.85	1609.70
960.02	1572.84
960.18	1603.56
960.35	1605.61
960.51	1644.52
960.68	1560.55
960.84	1597.42
961.00	1570.79
961.17	1617.90
961.33	1552.36
961.50	1648.61
961.66	1611.75
961.82	1609.70
961.99	1630.18
962.15	1619.94
962.31	1568.74
962.48	1632.23
962.64	1667.05
962.81	1646.57
962.97	1607.66
963.13	1699.81
963.30	1632.23
963.46	1531.88
963.62	1581.03
963.79	1654.76
963.95	1617.90
964.12	1642.47
964.28	1652.71
964.44	1585.13
964.61	1658.85
964.77	1687.53
964.93	1773.54
965.10	1642.47
965.26	1593.32
965.42	1665.00
965.59	1642.47
965.75	1548.26
965.92	1693.67
966.08	1626.09
966.24	1705.96
966.41	1607.66
966.57	1644.52
966.73	1699.81
966.90	1689.57
967.06	1636.33
967.22	1677.29
967.39	1609.70
967.55	1626.09
967.71	1552.36
967.88	1597.42
968.04	1611.75
968.20	1568.74
968.37	1556.46
968.53	1619.94
968.69	1648.61
968.85	1658.85
969.02	1669.09
969.18	1765.35
969.34	1556.46
969.51	1695.72
969.67	1699.81
969.83	1560.55
970.00	1757.16
970.16	1665.00
970.32	1675.24
970.48	1673.19
970.65	1632.23
970.81	1589.22
970.97	1693.67
971.14	1511.40
971.30	1708.01
971.46	1587.18
971.63	1677.29
971.79	1744.87
971.95	1658.85
972.11	1533.93
972.28	1595.37
972.44	1650.66
972.60	1540.07
972.76	1634.28
972.93	1564.65
973.09	1732.58
973.25	1570.79
973.42	1570.79
973.58	1716.20
973.74	1667.05
973.90	1609.70
974.07	1605.61
974.23	1656.81
974.39	1654.76
974.55	1658.85
974.72	1628.14
974.88	1544.17
975.04	1650.66
975.20	1609.70
975.37	1583.08
975.53	1550.31
975.69	1626.09
975.85	1621.99
976.01	1583.08
976.18	1621.99
976.34	1624.04
976.50	1699.81
976.66	1695.72
976.83	1603.56
976.99	1576.94
977.15	1683.43
977.31	1585.13
977.47	1644.52
977.64	1646.57
977.80	1677.29
977.96	1673.19
978.12	1626.09
978.29	1681.38
978.45	1568.74
978.61	1609.70
978.77	1677.29
978.93	1576.94
979.10	1589.22
979.26	1648.61
979.42	1708.01
979.58	1525.74
979.74	1523.69
979.91	1671.14
980.07	1589.22
980.23	1531.88
980.39	1615.85
980.55	1593.32
980.71	1593.32
980.88	1552.36
981.04	1617.90
981.20	1683.43
981.36	1591.27
981.52	1654.76
981.68	1529.83
981.85	1746.92
982.01	1621.99
982.17	1576.94
982.33	1660.90
982.49	1679.33
982.65	1581.03
982.82	1632.23
982.98	1576.94
983.14	1593.32
983.30	1619.94
983.46	1667.05
983.62	1644.52
983.79	1617.90
983.95	1503.21
984.11	1468.39
984.27	1679.33
984.43	1589.22
984.59	1597.42
984.75	1605.61
984.91	1535.98
985.08	1617.90
985.24	1552.36
985.40	1533.93
985.56	1607.66
985.72	1636.33
985.88	1665.00
986.04	1572.84
986.20	1548.26
986.37	1687.53
986.53	1574.89
986.69	1687.53
986.85	1568.74
987.01	1615.85
987.17	1689.57
987.33	1609.70
987.49	1556.46
987.65	1628.14
987.82	1656.81
987.98	1585.13
988.14	1578.98
988.30	1650.66
988.46	1660.90
988.62	1662.95
988.78	1531.88
988.94	1650.66
989.10	1624.04
989.26	1554.41
989.42	1630.18
989.59	1609.70
989.75	1624.04
989.91	1716.20
990.07	1535.98
990.23	1697.77
990.39	1619.94
990.55	1699.81
990.71	1558.50
990.87	1591.27
991.03	1607.66
991.19	1572.84
991.35	1644.52
991.51	1650.66
991.67	1601.51
991.83	1591.27
992.00	1609.70
992.16	1662.95
992.32	1650.66
992.48	1517.54
992.64	1544.17
992.80	1601.51
992.96	1671.14
993.12	1681.38
993.28	1601.51
993.44	1583.08
993.60	1675.24
993.76	1642.47
993.92	1656.81
994.08	1583.08
994.24	1630.18
994.40	1626.09
994.56	1673.19
994.72	1574.89
994.88	1544.17
995.04	1574.89
995.20	1568.74
995.36	1605.61
995.52	1626.09
995.68	1646.57
995.84	1531.88
996.00	1634.28
996.16	1632.23
996.32	1630.18
996.48	1570.79
996.64	1708.01
996.80	1601.51
996.96	1615.85
997.12	1669.09
997.28	1550.31
997.44	1601.51
997.60	1527.78
997.76	1703.91
997.92	1642.47
998.08	1642.47
998.24	1568.74
998.40	1626.09
998.56	1673.19
998.72	1521.64
998.88	1523.69
999.04	1585.13
999.20	1654.76
999.36	1564.65
999.52	1740.77
999.68	1599.46
999.84	1609.70
1000.00	1650.66
1000.16	1665.00
1000.32	1560.55
1000.48	1748.97
1000.64	1570.79
1000.80	1583.08
1000.95	1578.98
1001.11	1576.94
1001.27	1486.83
1001.43	1626.09
1001.59	1533.93
1001.75	1638.38
1001.91	1636.33
1002.07	1540.07
1002.23	1650.66
1002.39	1568.74
1002.55	1640.42
1002.71	1550.31
1002.87	1609.70
1003.03	1585.13
1003.19	1560.55
1003.34	1656.81
1003.50	1601.51
1003.66	1673.19
1003.82	1630.18
1003.98	1607.66
1004.14	1603.56
1004.30	1632.23
1004.46	1587.18
1004.62	1624.04
1004.78	1613.80
1004.94	1646.57
1005.09	1722.34
1005.25	1675.24
1005.41	1581.03
1005.57	1605.61
1005.73	1697.77
1005.89	1566.70
1006.05	1669.09
1006.21	1716.20
1006.37	1621.99
1006.52	1550.31
1006.68	1589.22
1006.84	1687.53
1007.00	1527.78
1007.16	1613.80
1007.32	1585.13
1007.48	1611.75
1007.64	1589.22
1007.79	1607.66
1007.95	1583.08
1008.11	1742.82
1008.27	1613.80
1008.43	1626.09
1008.59	1527.78
1008.75	1720.29
1008.91	1609.70
1009.06	1554.41
1009.22	1656.81
1009.38	1619.94
1009.54	1722.34
1009.70	1587.18
1009.86	1556.46
1010.01	1660.90
1010.17	1509.35
1010.33	1638.38
1010.49	1617.90
1010.65	1679.33
1010.81	1585.13
1010.96	1599.46
1011.12	1560.55
1011.28	1511.40
1011.44	1615.85
1011.60	1634.28
1011.76	1589.22
1011.91	1695.72
1012.07	1566.70
1012.23	1601.51
1012.39	1499.11
1012.55	1634.28
1012.71	1669.09
1012.86	1595.37
1013.02	1630.18
1013.18	1533.93
1013.34	1628.14
1013.50	1632.23
1013.65	1667.05
1013.81	1599.46
1013.97	1587.18
1014.13	1552.36
1014.29	1646.57
1014.44	1665.00
1014.60	1628.14
1014.76	1638.38
1014.92	1613.80
1015.07	1673.19
1015.23	1632.23
1015.39	1581.03
1015.55	1546.22
1015.71	1646.57
1015.86	1640.42
1016.02	1585.13
1016.18	1464.30
1016.34	1658.85
1016.49	1650.66
1016.65	1675.24
1016.81	1632.23
1016.97	1576.94
1017.12	1597.42
1017.28	1517.54
1017.44	1531.88
1017.60	1546.22
1017.75	1615.85
1017.91	1632.23
1018.07	1609.70
1018.23	1632.23
1018.38	1570.79
1018.54	1675.24
1018.70	1558.50
1018.86	1585.13
1019.01	1511.40
1019.17	1535.98
1019.33	1624.04
1019.49	1613.80
1019.64	1617.90
1019.80	1564.65
1019.96	1603.56
1020.12	1642.47
1020.27	1595.37
1020.43	1566.70
1020.59	1648.61
1020.74	1691.62
1020.90	1671.14
1021.06	1546.22
1021.22	1548.26
1021.37	1617.90
1021.53	1507.30
1021.69	1658.85
1021.84	1564.65
1022.00	1583.08
1022.16	1583.08
1022.31	1648.61
1022.47	1609.70
1022.63	1681.38
1022.79	1544.17
1022.94	1587.18
1023.10	1632.23
1023.26	1589.22
1023.41	1597.42
1023.57	1593.32
1023.73	1644.52
1023.88	1619.94
1024.04	1589.22
1024.20	1546.22
1024.35	1714.15
1024.51	1662.95
1024.67	1603.56
1024.82	1679.33
1024.98	1560.55
1025.14	1658.85
1025.29	1591.27
1025.45	1632.23
1025.61	1529.83
1025.76	1609.70
1025.92	1652.71
1026.08	1615.85
1026.23	1699.81
1026.39	1644.52
1026.55	1728.49
1026.70	1601.51
1026.86	1593.32
1027.02	1624.04
1027.17	1669.09
1027.33	1636.33
1027.48	1611.75
1027.64	1589.22
1027.80	1634.28
1027.95	1691.62
1028.11	1605.61
1028.27	1708.01
1028.42	1636.33
1028.58	1574.89
1028.73	1615.85
1028.89	1583.08
1029.05	1650.66
1029.20	1630.18
>>>>>End Processed Spectral Data<<<<<
