SpectraSuite Data File
++++++++++++++++++++++++++++++++++++
Date: Fri Jun 02 14:57:16 CEST 2017
User: INFO_000
Dark Spectrum Present: No
Reference Spectrum Present: No
Number of Sampled Component Spectra: 1
Spectrometers: USB4H00879
Integration Time (usec): 80000 (USB4H00879)
Spectra Averaged: 1 (USB4H00879)
Boxcar Smoothing: 0 (USB4H00879)
Correct for Electrical Dark: No (USB4H00879)
Strobe/Lamp Enabled: No (USB4H00879)
Correct for Detector Non-linearity: No (USB4H00879)
Correct for Stray Light: No (USB4H00879)
Number of Pixels in Processed Spectrum: 3648
>>>>>Begin Processed Spectral Data<<<<<
345.13	1347.56
345.34	1347.56
345.56	1347.56
345.78	1232.88
345.99	1308.65
346.21	1677.29
346.42	1710.05
346.64	1665.00
346.86	1759.21
347.07	1724.39
347.29	1634.28
347.50	1589.22
347.72	1669.09
347.94	1773.54
348.15	1570.79
348.37	1619.94
348.59	1683.43
348.80	1636.33
349.02	1685.48
349.23	1673.19
349.45	1699.81
349.67	1757.16
349.88	1697.77
350.10	1828.84
350.31	1726.44
350.53	1699.81
350.75	1869.80
350.96	1591.27
351.18	1732.58
351.39	1730.53
351.61	1636.33
351.82	1763.30
352.04	1787.88
352.26	1744.87
352.47	1738.73
352.69	1781.73
352.90	1603.56
353.12	1697.77
353.34	1722.34
353.55	1710.05
353.77	1718.25
353.98	1640.42
354.20	1722.34
354.41	1837.03
354.63	1767.40
354.85	1796.07
355.06	1708.01
355.28	1574.89
355.49	1736.68
355.71	1699.81
355.92	1687.53
356.14	1734.63
356.35	1689.57
356.57	1650.66
356.79	1712.10
357.00	1644.52
357.22	1769.44
357.43	1724.39
357.65	1755.11
357.86	1679.33
358.08	1693.67
358.29	1691.62
358.51	1763.30
358.72	1820.64
358.94	1695.72
359.16	1683.43
359.37	1740.77
359.59	1732.58
359.80	1781.73
360.02	1703.91
360.23	1748.97
360.45	1755.11
360.66	1695.72
360.88	1609.70
361.09	1660.90
361.31	1716.20
361.52	1714.15
361.74	1787.88
361.95	1822.69
362.17	1679.33
362.38	1773.54
362.60	1744.87
362.81	1738.73
363.03	1626.09
363.24	1712.10
363.46	1759.21
363.67	1730.53
363.89	1730.53
364.10	1677.29
364.32	1695.72
364.53	1740.77
364.75	1581.03
364.96	1722.34
365.18	1669.09
365.39	1693.67
365.61	1662.95
365.82	1769.44
366.04	1665.00
366.25	1613.80
366.47	1738.73
366.68	1683.43
366.90	1671.14
367.11	1740.77
367.33	1779.68
367.54	1785.83
367.76	1736.68
367.97	1724.39
368.19	1740.77
368.40	1718.25
368.62	1675.24
368.83	1605.61
369.05	1738.73
369.26	1601.51
369.48	1595.37
369.69	1648.61
369.91	1695.72
370.12	1585.13
370.33	1785.83
370.55	1607.66
370.76	1621.99
370.98	1720.29
371.19	1699.81
371.41	1665.00
371.62	1701.86
371.84	1630.18
372.05	1771.49
372.27	1699.81
372.48	1738.73
372.69	1744.87
372.91	1712.10
373.12	1798.12
373.34	1722.34
373.55	1748.97
373.77	1761.25
373.98	1601.51
374.20	1695.72
374.41	1787.88
374.62	1613.80
374.84	1681.38
375.05	1712.10
375.27	1697.77
375.48	1705.96
375.70	1669.09
375.91	1832.93
376.12	1847.27
376.34	1689.57
376.55	1650.66
376.77	1660.90
376.98	1683.43
377.19	1687.53
377.41	1564.65
377.62	1703.91
377.84	1781.73
378.05	1837.03
378.27	1679.33
378.48	1798.12
378.69	1826.79
378.91	1730.53
379.12	1710.05
379.34	1736.68
379.55	1794.02
379.76	1726.44
379.98	1697.77
380.19	1697.77
380.41	1765.35
380.62	1759.21
380.83	1675.24
381.05	1677.29
381.26	1867.75
381.47	1693.67
381.69	1744.87
381.90	1724.39
382.12	1673.19
382.33	1675.24
382.54	1642.47
382.76	1673.19
382.97	1714.15
383.19	1650.66
383.40	1712.10
383.61	1722.34
383.83	1599.46
384.04	1716.20
384.25	1718.25
384.47	1734.63
384.68	1712.10
384.89	1654.76
385.11	1634.28
385.32	1662.95
385.54	1617.90
385.75	1667.05
385.96	1753.06
386.18	1697.77
386.39	1794.02
386.60	1574.89
386.82	1742.82
387.03	1646.57
387.24	1734.63
387.46	1642.47
387.67	1740.77
387.88	1714.15
388.10	1744.87
388.31	1613.80
388.52	1710.05
388.74	1705.96
388.95	1701.86
389.16	1755.11
389.38	1638.38
389.59	1724.39
389.80	1730.53
390.02	1656.81
390.23	1716.20
390.44	1791.97
390.66	1691.62
390.87	1621.99
391.08	1742.82
391.30	1822.69
391.51	1769.44
391.72	1765.35
391.94	1626.09
392.15	1716.20
392.36	1669.09
392.58	1634.28
392.79	1740.77
393.00	1712.10
393.22	1824.74
393.43	1720.29
393.64	1794.02
393.85	1730.53
394.07	1654.76
394.28	1705.96
394.49	1683.43
394.71	1791.97
394.92	1798.12
395.13	1607.66
395.35	1712.10
395.56	1658.85
395.77	1662.95
395.98	1689.57
396.20	1710.05
396.41	1740.77
396.62	1761.25
396.84	1757.16
397.05	1605.61
397.26	1697.77
397.47	1796.07
397.69	1648.61
397.90	1794.02
398.11	1767.40
398.32	1679.33
398.54	1703.91
398.75	1712.10
398.96	1724.39
399.18	1839.08
399.39	1687.53
399.60	1736.68
399.81	1681.38
400.03	1617.90
400.24	1955.81
400.45	1681.38
400.66	1744.87
400.88	1609.70
401.09	1880.04
401.30	1728.49
401.51	1738.73
401.73	1775.59
401.94	1777.64
402.15	1732.58
402.36	1689.57
402.58	1787.88
402.79	1732.58
403.00	1683.43
403.21	1712.10
403.43	1744.87
403.64	1757.16
403.85	1677.29
404.06	1765.35
404.27	1583.08
404.49	1617.90
404.70	1742.82
404.91	1765.35
405.12	1761.25
405.34	1744.87
405.55	1738.73
405.76	1642.47
405.97	1646.57
406.19	1802.21
406.40	1640.42
406.61	1710.05
406.82	1648.61
407.03	1689.57
407.25	1644.52
407.46	1814.50
407.67	1765.35
407.88	1748.97
408.09	1732.58
408.31	1732.58
408.52	1673.19
408.73	1644.52
408.94	1667.05
409.15	1650.66
409.37	1759.21
409.58	1730.53
409.79	1685.48
410.00	1802.21
410.21	1650.66
410.43	1671.14
410.64	1658.85
410.85	1716.20
411.06	1714.15
411.27	1710.05
411.48	1814.50
411.70	1816.55
411.91	1656.81
412.12	1683.43
412.33	1757.16
412.54	1714.15
412.76	1740.77
412.97	1777.64
413.18	1697.77
413.39	1748.97
413.60	1771.49
413.81	1761.25
414.03	1642.47
414.24	1667.05
414.45	1820.64
414.66	1650.66
414.87	1662.95
415.08	1634.28
415.30	1679.33
415.51	1783.78
415.72	1773.54
415.93	1671.14
416.14	1804.26
416.35	1712.10
416.56	1689.57
416.78	1769.44
416.99	1691.62
417.20	1718.25
417.41	1785.83
417.62	1738.73
417.83	1701.86
418.04	1732.58
418.26	1794.02
418.47	1662.95
418.68	1728.49
418.89	1755.11
419.10	1894.37
419.31	1757.16
419.52	1789.92
419.73	1771.49
419.95	1736.68
420.16	1642.47
420.37	1660.90
420.58	1779.68
420.79	1595.37
421.00	1658.85
421.21	1693.67
421.42	1613.80
421.63	1630.18
421.85	1648.61
422.06	1638.38
422.27	1699.81
422.48	1703.91
422.69	1726.44
422.90	1675.24
423.11	1583.08
423.32	1785.83
423.53	1775.59
423.75	1632.23
423.96	1777.64
424.17	1820.64
424.38	1820.64
424.59	1699.81
424.80	1740.77
425.01	1712.10
425.22	1605.61
425.43	1675.24
425.64	1763.30
425.85	1789.92
426.06	1769.44
426.28	1679.33
426.49	1720.29
426.70	1587.18
426.91	1671.14
427.12	1671.14
427.33	1665.00
427.54	1712.10
427.75	1697.77
427.96	1757.16
428.17	1701.86
428.38	1654.76
428.59	1708.01
428.80	1720.29
429.01	1675.24
429.23	1669.09
429.44	1642.47
429.65	1685.48
429.86	1736.68
430.07	1767.40
430.28	1677.29
430.49	1705.96
430.70	1785.83
430.91	1871.84
431.12	1660.90
431.33	1716.20
431.54	1708.01
431.75	1677.29
431.96	1728.49
432.17	1695.72
432.38	1751.01
432.59	1832.93
432.80	1753.06
433.01	1726.44
433.22	1714.15
433.43	1695.72
433.64	1744.87
433.85	1744.87
434.06	1665.00
434.27	1640.42
434.49	1621.99
434.70	1812.45
434.91	1648.61
435.12	1685.48
435.33	1667.05
435.54	1722.34
435.75	1650.66
435.96	1701.86
436.17	1757.16
436.38	1783.78
436.59	1701.86
436.80	1591.27
437.01	1736.68
437.22	1832.93
437.43	1695.72
437.64	1640.42
437.85	1820.64
438.06	1765.35
438.27	1685.48
438.48	1673.19
438.69	1716.20
438.90	1675.24
439.11	1636.33
439.32	1753.06
439.53	1636.33
439.74	1632.23
439.95	1646.57
440.16	1701.86
440.37	1671.14
440.57	1562.60
440.78	1638.38
440.99	1751.01
441.20	1695.72
441.41	1560.55
441.62	1634.28
441.83	1642.47
442.04	1578.98
442.25	1671.14
442.46	1652.71
442.67	1626.09
442.88	1787.88
443.09	1613.80
443.30	1617.90
443.51	1689.57
443.72	1718.25
443.93	1652.71
444.14	1826.79
444.35	1671.14
444.56	1673.19
444.77	1648.61
444.98	1675.24
445.19	1744.87
445.40	1712.10
445.61	1642.47
445.81	1632.23
446.02	1677.29
446.23	1685.48
446.44	1665.00
446.65	1699.81
446.86	1777.64
447.07	1859.56
447.28	1718.25
447.49	1685.48
447.70	1703.91
447.91	1716.20
448.12	1675.24
448.33	1798.12
448.54	1718.25
448.74	1691.62
448.95	1644.52
449.16	1748.97
449.37	1861.60
449.58	1656.81
449.79	1705.96
450.00	1699.81
450.21	1695.72
450.42	1695.72
450.63	1685.48
450.84	1626.09
451.05	1769.44
451.25	1691.62
451.46	1591.27
451.67	1816.55
451.88	1654.76
452.09	1712.10
452.30	1615.85
452.51	1638.38
452.72	1765.35
452.93	1822.69
453.13	1576.94
453.34	1601.51
453.55	1642.47
453.76	1681.38
453.97	1691.62
454.18	1564.65
454.39	1675.24
454.60	1640.42
454.81	1652.71
455.01	1685.48
455.22	1691.62
455.43	1662.95
455.64	1783.78
455.85	1763.30
456.06	1724.39
456.27	1716.20
456.48	1718.25
456.68	1671.14
456.89	1695.72
457.10	1632.23
457.31	1740.77
457.52	1744.87
457.73	1650.66
457.94	1675.24
458.14	1587.18
458.35	1724.39
458.56	1648.61
458.77	1683.43
458.98	1658.85
459.19	1740.77
459.39	1685.48
459.60	1679.33
459.81	1732.58
460.02	1732.58
460.23	1705.96
460.44	1601.51
460.65	1744.87
460.85	1728.49
461.06	1638.38
461.27	1677.29
461.48	1669.09
461.69	1632.23
461.89	1642.47
462.10	1675.24
462.31	1560.55
462.52	1617.90
462.73	1650.66
462.94	1742.82
463.14	1613.80
463.35	1734.63
463.56	1808.36
463.77	1646.57
463.98	1624.04
464.18	1648.61
464.39	1724.39
464.60	1732.58
464.81	1597.42
465.02	1724.39
465.23	1744.87
465.43	1740.77
465.64	1632.23
465.85	1658.85
466.06	1701.86
466.27	1705.96
466.47	1675.24
466.68	1794.02
466.89	1587.18
467.10	1710.05
467.30	1673.19
467.51	1777.64
467.72	1810.40
467.93	1628.14
468.14	1689.57
468.34	1742.82
468.55	1714.15
468.76	1802.21
468.97	1783.78
469.17	1734.63
469.38	1781.73
469.59	1683.43
469.80	1708.01
470.01	1650.66
470.21	1652.71
470.42	1648.61
470.63	1738.73
470.84	1765.35
471.04	1617.90
471.25	1785.83
471.46	1748.97
471.67	1802.21
471.87	1687.53
472.08	1734.63
472.29	1617.90
472.50	1697.77
472.70	1708.01
472.91	1685.48
473.12	1613.80
473.33	1726.44
473.53	1720.29
473.74	1626.09
473.95	1699.81
474.16	1714.15
474.36	1646.57
474.57	1724.39
474.78	1640.42
474.99	1773.54
475.19	1703.91
475.40	1740.77
475.61	1755.11
475.81	1740.77
476.02	1669.09
476.23	1740.77
476.44	1621.99
476.64	1667.05
476.85	1673.19
477.06	1687.53
477.27	1658.85
477.47	1705.96
477.68	1630.18
477.89	1693.67
478.09	1705.96
478.30	1695.72
478.51	1650.66
478.71	1630.18
478.92	1789.92
479.13	1648.61
479.34	1685.48
479.54	1626.09
479.75	1617.90
479.96	1679.33
480.16	1685.48
480.37	1765.35
480.58	1705.96
480.78	1746.92
480.99	1683.43
481.20	1708.01
481.41	1740.77
481.61	1773.54
481.82	1814.50
482.03	1617.90
482.23	1681.38
482.44	1845.22
482.65	1814.50
482.85	1841.12
483.06	1689.57
483.27	1687.53
483.47	1644.52
483.68	1708.01
483.89	1708.01
484.09	1699.81
484.30	1730.53
484.51	1765.35
484.71	1597.42
484.92	1658.85
485.13	1742.82
485.33	1624.04
485.54	1601.51
485.75	1712.10
485.95	1804.26
486.16	1699.81
486.37	1689.57
486.57	1662.95
486.78	1675.24
486.98	1683.43
487.19	1658.85
487.40	1708.01
487.60	1671.14
487.81	1710.05
488.02	1667.05
488.22	1697.77
488.43	1839.08
488.64	1613.80
488.84	1712.10
489.05	1785.83
489.25	1669.09
489.46	1677.29
489.67	1679.33
489.87	1755.11
490.08	1712.10
490.29	1683.43
490.49	1800.16
490.70	1708.01
490.90	1652.71
491.11	1675.24
491.32	1718.25
491.52	1662.95
491.73	1683.43
491.94	1677.29
492.14	1654.76
492.35	1732.58
492.55	1769.44
492.76	1695.72
492.97	1646.57
493.17	1652.71
493.38	1689.57
493.58	1789.92
493.79	1699.81
494.00	1681.38
494.20	1621.99
494.41	1695.72
494.61	1789.92
494.82	1722.34
495.02	1552.36
495.23	1681.38
495.44	1722.34
495.64	1740.77
495.85	1662.95
496.05	1732.58
496.26	1701.86
496.47	1646.57
496.67	1695.72
496.88	1742.82
497.08	1654.76
497.29	1699.81
497.49	1785.83
497.70	1730.53
497.91	1632.23
498.11	1861.60
498.32	1632.23
498.52	1789.92
498.73	1730.53
498.93	1765.35
499.14	1734.63
499.34	1748.97
499.55	1740.77
499.76	1667.05
499.96	1693.67
500.17	1742.82
500.37	1687.53
500.58	1679.33
500.78	1621.99
500.99	1677.29
501.19	1654.76
501.40	1730.53
501.60	1607.66
501.81	1681.38
502.02	1732.58
502.22	1656.81
502.43	1716.20
502.63	1847.27
502.84	1720.29
503.04	1679.33
503.25	1619.94
503.45	1796.07
503.66	1619.94
503.86	1761.25
504.07	1746.92
504.27	1671.14
504.48	1654.76
504.68	1720.29
504.89	1734.63
505.09	1581.03
505.30	1697.77
505.50	1767.40
505.71	1693.67
505.91	1734.63
506.12	1755.11
506.32	1683.43
506.53	1585.13
506.73	1681.38
506.94	1599.46
507.14	1658.85
507.35	1794.02
507.55	1722.34
507.76	1697.77
507.96	1667.05
508.17	1675.24
508.37	1699.81
508.58	1744.87
508.78	1697.77
508.99	1830.88
509.19	1728.49
509.40	1693.67
509.60	1712.10
509.81	1781.73
510.01	1710.05
510.22	1732.58
510.42	1787.88
510.63	1761.25
510.83	1724.39
511.04	1673.19
511.24	1775.59
511.44	1703.91
511.65	1699.81
511.85	1687.53
512.06	1712.10
512.26	1613.80
512.47	1722.34
512.67	1656.81
512.88	1773.54
513.08	1652.71
513.29	1759.21
513.49	1669.09
513.69	1712.10
513.90	1615.85
514.10	1837.03
514.31	1730.53
514.51	1685.48
514.72	1746.92
514.92	1734.63
515.13	1687.53
515.33	1628.14
515.53	1646.57
515.74	1822.69
515.94	1701.86
516.15	1773.54
516.35	1595.37
516.56	1650.66
516.76	1621.99
516.96	1740.77
517.17	1716.20
517.37	1722.34
517.58	1605.61
517.78	1691.62
517.99	1832.93
518.19	1785.83
518.39	1671.14
518.60	1728.49
518.80	1681.38
519.01	1800.16
519.21	1757.16
519.41	1732.58
519.62	1591.27
519.82	1789.92
520.03	1705.96
520.23	1724.39
520.43	1642.47
520.64	1740.77
520.84	1777.64
521.05	1656.81
521.25	1744.87
521.45	1708.01
521.66	1708.01
521.86	1751.01
522.07	1689.57
522.27	1650.66
522.47	1624.04
522.68	1624.04
522.88	1697.77
523.08	1656.81
523.29	1617.90
523.49	1708.01
523.70	1644.52
523.90	1673.19
524.10	1597.42
524.31	1730.53
524.51	1566.70
524.71	1691.62
524.92	1667.05
525.12	1544.17
525.33	1724.39
525.53	1689.57
525.73	1765.35
525.94	1701.86
526.14	1693.67
526.34	1642.47
526.55	1613.80
526.75	1658.85
526.95	1773.54
527.16	1638.38
527.36	1726.44
527.56	1675.24
527.77	1652.71
527.97	1685.48
528.17	1683.43
528.38	1652.71
528.58	1685.48
528.78	1634.28
528.99	1722.34
529.19	1632.23
529.39	1603.56
529.60	1615.85
529.80	1646.57
530.00	1607.66
530.21	1777.64
530.41	1652.71
530.61	1736.68
530.82	1757.16
531.02	1724.39
531.22	1662.95
531.43	1722.34
531.63	1720.29
531.83	1621.99
532.04	1748.97
532.24	1615.85
532.44	1671.14
532.64	1806.31
532.85	1656.81
533.05	1673.19
533.25	1626.09
533.46	1677.29
533.66	1722.34
533.86	1673.19
534.07	1748.97
534.27	1689.57
534.47	1726.44
534.67	1775.59
534.88	1669.09
535.08	1730.53
535.28	1755.11
535.49	1660.90
535.69	1763.30
535.89	1791.97
536.09	1787.88
536.30	1728.49
536.50	1632.23
536.70	1705.96
536.91	1675.24
537.11	1773.54
537.31	1755.11
537.51	1685.48
537.72	1656.81
537.92	1701.86
538.12	1857.51
538.32	1781.73
538.53	1675.24
538.73	1609.70
538.93	1660.90
539.13	1578.98
539.34	1812.45
539.54	1589.22
539.74	1746.92
539.94	1671.14
540.15	1734.63
540.35	1828.84
540.55	1689.57
540.75	1699.81
540.96	1720.29
541.16	1693.67
541.36	1722.34
541.56	1806.31
541.77	1724.39
541.97	1720.29
542.17	1699.81
542.37	1746.92
542.58	1716.20
542.78	1728.49
542.98	1687.53
543.18	1644.52
543.38	1753.06
543.59	1794.02
543.79	1681.38
543.99	1632.23
544.19	1685.48
544.40	1753.06
544.60	1685.48
544.80	1671.14
545.00	1621.99
545.20	1695.72
545.41	1740.77
545.61	1589.22
545.81	1748.97
546.01	1687.53
546.21	1658.85
546.42	1716.20
546.62	1798.12
546.82	1603.56
547.02	1662.95
547.22	1626.09
547.43	1734.63
547.63	1777.64
547.83	1740.77
548.03	1691.62
548.23	1773.54
548.44	1708.01
548.64	1665.00
548.84	1722.34
549.04	1609.70
549.24	1839.08
549.45	1898.47
549.65	1687.53
549.85	1773.54
550.05	1675.24
550.25	1605.61
550.45	1785.83
550.66	1769.44
550.86	1609.70
551.06	1679.33
551.26	1687.53
551.46	1677.29
551.66	1751.01
551.87	1730.53
552.07	1730.53
552.27	1624.04
552.47	1769.44
552.67	1669.09
552.87	1806.31
553.07	1634.28
553.28	1710.05
553.48	1669.09
553.68	1617.90
553.88	1787.88
554.08	1677.29
554.28	1552.36
554.48	1671.14
554.69	1669.09
554.89	1695.72
555.09	1642.47
555.29	1593.32
555.49	1695.72
555.69	1710.05
555.89	1689.57
556.10	1677.29
556.30	1736.68
556.50	1730.53
556.70	1697.77
556.90	1701.86
557.10	1658.85
557.30	1650.66
557.50	1624.04
557.70	1613.80
557.91	1701.86
558.11	1695.72
558.31	1853.41
558.51	1695.72
558.71	1673.19
558.91	1679.33
559.11	1583.08
559.31	1636.33
559.51	1652.71
559.72	1822.69
559.92	1630.18
560.12	1638.38
560.32	1724.39
560.52	1667.05
560.72	1628.14
560.92	1724.39
561.12	1708.01
561.32	1658.85
561.52	1583.08
561.72	1933.28
561.93	1779.68
562.13	1708.01
562.33	1705.96
562.53	1673.19
562.73	1621.99
562.93	1724.39
563.13	1746.92
563.33	1753.06
563.53	1742.82
563.73	1822.69
563.93	1826.79
564.13	1806.31
564.33	1601.51
564.53	1718.25
564.74	1720.29
564.94	1679.33
565.14	1744.87
565.34	1720.29
565.54	1703.91
565.74	1671.14
565.94	1720.29
566.14	1701.86
566.34	1679.33
566.54	1716.20
566.74	1681.38
566.94	1693.67
567.14	1746.92
567.34	1611.75
567.54	1665.00
567.74	1748.97
567.94	1767.40
568.14	1667.05
568.34	1810.40
568.54	1673.19
568.74	1656.81
568.94	1669.09
569.14	1726.44
569.34	1708.01
569.54	1570.79
569.75	1677.29
569.95	1748.97
570.15	1761.25
570.35	1710.05
570.55	1669.09
570.75	1638.38
570.95	1716.20
571.15	1753.06
571.35	1615.85
571.55	1617.90
571.75	1744.87
571.95	1708.01
572.15	1701.86
572.35	1734.63
572.55	1675.24
572.75	1730.53
572.95	1523.69
573.15	1748.97
573.35	1810.40
573.55	1712.10
573.75	1669.09
573.95	1867.75
574.15	1683.43
574.35	1720.29
574.55	1726.44
574.75	1714.15
574.95	1710.05
575.15	1681.38
575.34	1669.09
575.54	1658.85
575.74	1703.91
575.94	1685.48
576.14	1679.33
576.34	1675.24
576.54	1646.57
576.74	1755.11
576.94	1599.46
577.14	1718.25
577.34	1742.82
577.54	1654.76
577.74	1712.10
577.94	1720.29
578.14	1636.33
578.34	1712.10
578.54	1593.32
578.74	1685.48
578.94	1648.61
579.14	1714.15
579.34	1640.42
579.54	1724.39
579.74	1671.14
579.94	1654.76
580.13	1732.58
580.33	1607.66
580.53	1695.72
580.73	1677.29
580.93	1753.06
581.13	1671.14
581.33	1619.94
581.53	1695.72
581.73	1732.58
581.93	1673.19
582.13	1722.34
582.33	1761.25
582.53	1636.33
582.73	1699.81
582.92	1679.33
583.12	1748.97
583.32	1667.05
583.52	1667.05
583.72	1847.27
583.92	1746.92
584.12	1683.43
584.32	1679.33
584.52	1630.18
584.72	1685.48
584.92	1705.96
585.11	1681.38
585.31	1785.83
585.51	1689.57
585.71	1720.29
585.91	1769.44
586.11	1671.14
586.31	1675.24
586.51	1638.38
586.71	1683.43
586.91	1630.18
587.10	1753.06
587.30	1708.01
587.50	1681.38
587.70	1724.39
587.90	1695.72
588.10	1619.94
588.30	1714.15
588.50	1708.01
588.69	1675.24
588.89	1708.01
589.09	1802.21
589.29	1617.90
589.49	1660.90
589.69	1665.00
589.89	1701.86
590.08	1650.66
590.28	1673.19
590.48	1767.40
590.68	1736.68
590.88	1671.14
591.08	1755.11
591.28	1640.42
591.47	1710.05
591.67	1644.52
591.87	1646.57
592.07	1886.18
592.27	1650.66
592.47	1558.50
592.67	1732.58
592.86	1712.10
593.06	1736.68
593.26	1798.12
593.46	1736.68
593.66	1660.90
593.86	1822.69
594.05	1740.77
594.25	1640.42
594.45	1703.91
594.65	1814.50
594.85	1763.30
595.05	1675.24
595.24	1613.80
595.44	1634.28
595.64	1644.52
595.84	1773.54
596.04	1660.90
596.23	1656.81
596.43	1765.35
596.63	1767.40
596.83	1732.58
597.03	1847.27
597.22	1697.77
597.42	1757.16
597.62	1740.77
597.82	1718.25
598.02	1738.73
598.21	1691.62
598.41	1732.58
598.61	1697.77
598.81	1642.47
599.01	1705.96
599.20	1658.85
599.40	1675.24
599.60	1763.30
599.80	1671.14
600.00	1787.88
600.19	1798.12
600.39	1603.56
600.59	1748.97
600.79	1720.29
600.98	1730.53
601.18	1796.07
601.38	1742.82
601.58	1644.52
601.78	1697.77
601.97	1742.82
602.17	1783.78
602.37	1630.18
602.57	1722.34
602.76	1697.77
602.96	1677.29
603.16	1609.70
603.36	1708.01
603.55	1773.54
603.75	1701.86
603.95	1679.33
604.15	1787.88
604.34	1703.91
604.54	1726.44
604.74	1705.96
604.94	1753.06
605.13	1699.81
605.33	1634.28
605.53	1710.05
605.73	1689.57
605.92	1669.09
606.12	1736.68
606.32	1738.73
606.52	1751.01
606.71	1761.25
606.91	1681.38
607.11	1656.81
607.30	1763.30
607.50	1662.95
607.70	1777.64
607.90	1701.86
608.09	1675.24
608.29	1716.20
608.49	1804.26
608.68	1648.61
608.88	1648.61
609.08	1679.33
609.28	1767.40
609.47	1712.10
609.67	1679.33
609.87	1630.18
610.06	1720.29
610.26	1712.10
610.46	1771.49
610.66	1687.53
610.85	1679.33
611.05	1761.25
611.25	1646.57
611.44	1734.63
611.64	1714.15
611.84	1771.49
612.03	1710.05
612.23	1695.72
612.43	1800.16
612.62	1794.02
612.82	1777.64
613.02	1753.06
613.21	1724.39
613.41	1744.87
613.61	1691.62
613.80	1730.53
614.00	1699.81
614.20	1753.06
614.39	1802.21
614.59	1757.16
614.79	1615.85
614.98	1742.82
615.18	1654.76
615.38	1722.34
615.57	1642.47
615.77	1832.93
615.97	1689.57
616.16	1761.25
616.36	1804.26
616.56	1734.63
616.75	1689.57
616.95	1691.62
617.15	1763.30
617.34	1619.94
617.54	1847.27
617.74	1796.07
617.93	1884.13
618.13	1675.24
618.32	1730.53
618.52	1781.73
618.72	1683.43
618.91	1728.49
619.11	1796.07
619.31	1773.54
619.50	1630.18
619.70	1687.53
619.90	1716.20
620.09	1724.39
620.29	1669.09
620.48	1781.73
620.68	1777.64
620.88	1708.01
621.07	1867.75
621.27	1708.01
621.46	1753.06
621.66	1775.59
621.86	1683.43
622.05	1740.77
622.25	1806.31
622.44	1615.85
622.64	1697.77
622.84	1714.15
623.03	1658.85
623.23	1716.20
623.42	1726.44
623.62	1765.35
623.82	1775.59
624.01	1699.81
624.21	1730.53
624.40	1724.39
624.60	1630.18
624.80	1722.34
624.99	1755.11
625.19	1783.78
625.38	1765.35
625.58	1757.16
625.77	1746.92
625.97	1689.57
626.17	1714.15
626.36	1701.86
626.56	1761.25
626.75	1683.43
626.95	1710.05
627.14	1746.92
627.34	1695.72
627.54	1818.60
627.73	1837.03
627.93	1742.82
628.12	1699.81
628.32	1697.77
628.51	1701.86
628.71	1769.44
628.90	1761.25
629.10	1654.76
629.30	1669.09
629.49	1755.11
629.69	1658.85
629.88	1667.05
630.08	1812.45
630.27	1849.32
630.47	1705.96
630.66	1683.43
630.86	1746.92
631.05	1671.14
631.25	1740.77
631.44	1806.31
631.64	1710.05
631.84	1603.56
632.03	1802.21
632.23	1755.11
632.42	1675.24
632.62	1654.76
632.81	1640.42
633.01	1794.02
633.20	1775.59
633.40	1843.17
633.59	1753.06
633.79	1744.87
633.98	1759.21
634.18	1767.40
634.37	1796.07
634.57	1685.48
634.76	1662.95
634.96	1738.73
635.15	1890.28
635.35	1671.14
635.54	1728.49
635.74	1732.58
635.93	1675.24
636.13	1673.19
636.32	1771.49
636.52	1708.01
636.71	1726.44
636.91	1650.66
637.10	1804.26
637.30	1722.34
637.49	1773.54
637.69	1767.40
637.88	1722.34
638.08	1658.85
638.27	1695.72
638.46	1734.63
638.66	1722.34
638.85	1712.10
639.05	1744.87
639.24	1796.07
639.44	1771.49
639.63	1757.16
639.83	1771.49
640.02	1630.18
640.22	1765.35
640.41	1708.01
640.61	1742.82
640.80	1708.01
640.99	1734.63
641.19	1798.12
641.38	1810.40
641.58	1658.85
641.77	1712.10
641.97	1611.75
642.16	1656.81
642.36	1804.26
642.55	1683.43
642.74	1781.73
642.94	1746.92
643.13	1736.68
643.33	1818.60
643.52	1705.96
643.72	1798.12
643.91	1671.14
644.10	1748.97
644.30	1699.81
644.49	1785.83
644.69	1679.33
644.88	1708.01
645.08	1808.36
645.27	1759.21
645.46	1759.21
645.66	1767.40
645.85	1736.68
646.05	1691.62
646.24	1650.66
646.43	1765.35
646.63	1703.91
646.82	1718.25
647.02	1777.64
647.21	1820.64
647.40	1638.38
647.60	1624.04
647.79	1787.88
647.99	1708.01
648.18	1597.42
648.37	1787.88
648.57	1744.87
648.76	1638.38
648.96	1716.20
649.15	1708.01
649.34	1873.89
649.54	1744.87
649.73	1660.90
649.92	1683.43
650.12	1736.68
650.31	1720.29
650.51	1912.80
650.70	1669.09
650.89	1699.81
651.09	1826.79
651.28	1744.87
651.47	1683.43
651.67	1871.84
651.86	1826.79
652.06	1708.01
652.25	1669.09
652.44	1583.08
652.64	1779.68
652.83	1722.34
653.02	1767.40
653.22	1822.69
653.41	1658.85
653.60	1650.66
653.80	1591.27
653.99	1765.35
654.18	1665.00
654.38	1681.38
654.57	1783.78
654.76	1640.42
654.96	1769.44
655.15	1626.09
655.34	1748.97
655.54	1652.71
655.73	1757.16
655.92	1689.57
656.12	1728.49
656.31	1880.04
656.50	1830.88
656.70	1718.25
656.89	1708.01
657.08	1640.42
657.28	1724.39
657.47	1699.81
657.66	1724.39
657.86	1634.28
658.05	1789.92
658.24	1654.76
658.43	1789.92
658.63	1697.77
658.82	1808.36
659.01	1771.49
659.21	1798.12
659.40	1753.06
659.59	1732.58
659.79	1673.19
659.98	1859.56
660.17	1767.40
660.36	1732.58
660.56	1705.96
660.75	1771.49
660.94	1648.61
661.14	1601.51
661.33	1681.38
661.52	1722.34
661.71	1787.88
661.91	1705.96
662.10	1732.58
662.29	1699.81
662.49	1675.24
662.68	1685.48
662.87	1658.85
663.06	1796.07
663.26	1697.77
663.45	1877.99
663.64	1724.39
663.83	1834.98
664.03	1798.12
664.22	1740.77
664.41	1806.31
664.60	1736.68
664.80	1665.00
664.99	1814.50
665.18	1830.88
665.37	1679.33
665.57	1718.25
665.76	1720.29
665.95	1726.44
666.14	1705.96
666.34	1732.58
666.53	1716.20
666.72	1626.09
666.91	1681.38
667.11	1734.63
667.30	1902.56
667.49	1732.58
667.68	1779.68
667.87	1660.90
668.07	1785.83
668.26	1630.18
668.45	1648.61
668.64	1705.96
668.84	1861.60
669.03	1761.25
669.22	1839.08
669.41	1763.30
669.60	1683.43
669.80	1779.68
669.99	1689.57
670.18	1720.29
670.37	1869.80
670.57	1728.49
670.76	1716.20
670.95	1855.46
671.14	1722.34
671.33	1634.28
671.53	1814.50
671.72	1773.54
671.91	1699.81
672.10	1691.62
672.29	1744.87
672.48	1685.48
672.68	1728.49
672.87	1689.57
673.06	1759.21
673.25	1798.12
673.44	1693.67
673.64	1634.28
673.83	1746.92
674.02	1708.01
674.21	1800.16
674.40	1724.39
674.59	1728.49
674.79	1671.14
674.98	1787.88
675.17	1808.36
675.36	1630.18
675.55	1744.87
675.74	1660.90
675.94	1857.51
676.13	1824.74
676.32	1673.19
676.51	1746.92
676.70	1654.76
676.89	1716.20
677.08	1732.58
677.28	1800.16
677.47	1697.77
677.66	1796.07
677.85	1683.43
678.04	1730.53
678.23	1791.97
678.42	1683.43
678.62	1730.53
678.81	1681.38
679.00	1699.81
679.19	1806.31
679.38	1771.49
679.57	1722.34
679.76	1714.15
679.96	1697.77
680.15	1779.68
680.34	1742.82
680.53	1787.88
680.72	1716.20
680.91	1703.91
681.10	1787.88
681.29	1699.81
681.48	1724.39
681.68	1691.62
681.87	1800.16
682.06	1748.97
682.25	1773.54
682.44	1746.92
682.63	1785.83
682.82	1560.55
683.01	1806.31
683.20	1730.53
683.39	1810.40
683.59	1771.49
683.78	1755.11
683.97	1712.10
684.16	1650.66
684.35	1646.57
684.54	1779.68
684.73	1665.00
684.92	1685.48
685.11	1796.07
685.30	1753.06
685.49	1738.73
685.69	1798.12
685.88	1660.90
686.07	1624.04
686.26	1695.72
686.45	1755.11
686.64	1796.07
686.83	1708.01
687.02	1742.82
687.21	1830.88
687.40	1789.92
687.59	1859.56
687.78	1671.14
687.97	1875.94
688.16	1761.25
688.35	1720.29
688.54	1697.77
688.74	1515.50
688.93	1775.59
689.12	1742.82
689.31	1830.88
689.50	1718.25
689.69	1650.66
689.88	1744.87
690.07	1757.16
690.26	1771.49
690.45	1724.39
690.64	1638.38
690.83	1669.09
691.02	1730.53
691.21	1701.86
691.40	1638.38
691.59	1703.91
691.78	1718.25
691.97	1642.47
692.16	1796.07
692.35	1794.02
692.54	1759.21
692.73	1708.01
692.92	1746.92
693.11	1753.06
693.30	1777.64
693.49	1642.47
693.68	1757.16
693.87	1759.21
694.06	1646.57
694.25	1687.53
694.44	1681.38
694.63	1562.60
694.82	1689.57
695.01	1654.76
695.20	1710.05
695.39	1708.01
695.58	1677.29
695.77	1640.42
695.96	1796.07
696.15	1708.01
696.34	1626.09
696.53	1703.91
696.72	1724.39
696.91	1654.76
697.10	1697.77
697.29	1703.91
697.48	1808.36
697.67	1720.29
697.86	1716.20
698.05	1708.01
698.24	1679.33
698.43	1740.77
698.62	1746.92
698.81	1691.62
699.00	1771.49
699.19	1828.84
699.38	1748.97
699.57	1636.33
699.76	1746.92
699.95	1638.38
700.14	1689.57
700.32	1611.75
700.51	1687.53
700.70	1708.01
700.89	1857.51
701.08	1777.64
701.27	1714.15
701.46	1824.74
701.65	1740.77
701.84	1748.97
702.03	1656.81
702.22	1720.29
702.41	1849.32
702.60	1691.62
702.79	1703.91
702.98	1714.15
703.17	1789.92
703.35	1705.96
703.54	1791.97
703.73	1816.55
703.92	1624.04
704.11	1742.82
704.30	1781.73
704.49	1816.55
704.68	1673.19
704.87	1708.01
705.06	1839.08
705.25	1595.37
705.43	1624.04
705.62	1798.12
705.81	1726.44
706.00	1681.38
706.19	1705.96
706.38	1732.58
706.57	1802.21
706.76	1634.28
706.95	1683.43
707.14	1718.25
707.32	1658.85
707.51	1710.05
707.70	1705.96
707.89	1738.73
708.08	1679.33
708.27	1765.35
708.46	1705.96
708.65	1671.14
708.84	1769.44
709.02	1765.35
709.21	1724.39
709.40	1748.97
709.59	1753.06
709.78	1728.49
709.97	1689.57
710.16	1689.57
710.34	1751.01
710.53	1720.29
710.72	1767.40
710.91	1736.68
711.10	1716.20
711.29	1603.56
711.48	1753.06
711.66	1808.36
711.85	1726.44
712.04	1787.88
712.23	1673.19
712.42	1742.82
712.61	1751.01
712.80	1714.15
712.98	1724.39
713.17	1691.62
713.36	1736.68
713.55	1757.16
713.74	1804.26
713.93	1789.92
714.11	1654.76
714.30	1564.65
714.49	1728.49
714.68	1687.53
714.87	1669.09
715.06	1789.92
715.24	1730.53
715.43	1748.97
715.62	1636.33
715.81	1699.81
716.00	1755.11
716.18	1714.15
716.37	1794.02
716.56	1712.10
716.75	1753.06
716.94	1665.00
717.12	1677.29
717.31	1734.63
717.50	1748.97
717.69	1689.57
717.88	1722.34
718.06	1722.34
718.25	1777.64
718.44	1662.95
718.63	1783.78
718.82	1621.99
719.00	1662.95
719.19	1865.70
719.38	1675.24
719.57	1673.19
719.76	1748.97
719.94	1699.81
720.13	1759.21
720.32	1800.16
720.51	1701.86
720.69	1798.12
720.88	1742.82
721.07	1665.00
721.26	1808.36
721.44	1726.44
721.63	1771.49
721.82	1683.43
722.01	1730.53
722.20	1701.86
722.38	1740.77
722.57	1615.85
722.76	1781.73
722.95	1583.08
723.13	1679.33
723.32	1777.64
723.51	1732.58
723.70	1714.15
723.88	1738.73
724.07	1585.13
724.26	1763.30
724.44	1759.21
724.63	1783.78
724.82	1736.68
725.01	1691.62
725.19	1617.90
725.38	1705.96
725.57	1671.14
725.76	1818.60
725.94	1599.46
726.13	1671.14
726.32	1742.82
726.51	1705.96
726.69	1576.94
726.88	1671.14
727.07	1757.16
727.25	1642.47
727.44	1691.62
727.63	1671.14
727.82	1710.05
728.00	1611.75
728.19	1691.62
728.38	1699.81
728.56	1587.18
728.75	1824.74
728.94	1746.92
729.12	1773.54
729.31	1646.57
729.50	1626.09
729.69	1746.92
729.87	1681.38
730.06	1675.24
730.25	1773.54
730.43	1736.68
730.62	1675.24
730.81	1617.90
730.99	1751.01
731.18	1695.72
731.37	1734.63
731.55	1712.10
731.74	1742.82
731.93	1718.25
732.11	1775.59
732.30	1656.81
732.49	1699.81
732.67	1660.90
732.86	1624.04
733.05	1609.70
733.23	1744.87
733.42	1613.80
733.61	1751.01
733.79	1705.96
733.98	1771.49
734.17	1654.76
734.35	1718.25
734.54	1755.11
734.73	1867.75
734.91	1554.41
735.10	1722.34
735.29	1732.58
735.47	1574.89
735.66	1605.61
735.84	1810.40
736.03	1642.47
736.22	1689.57
736.40	1703.91
736.59	1593.32
736.78	1720.29
736.96	1658.85
737.15	1751.01
737.33	1722.34
737.52	1703.91
737.71	1691.62
737.89	1687.53
738.08	1757.16
738.27	1787.88
738.45	1683.43
738.64	1705.96
738.82	1689.57
739.01	1642.47
739.20	1722.34
739.38	1679.33
739.57	1732.58
739.75	1742.82
739.94	1701.86
740.13	1552.36
740.31	1671.14
740.50	1722.34
740.68	1703.91
740.87	1652.71
741.06	1783.78
741.24	1736.68
741.43	1658.85
741.61	1679.33
741.80	1730.53
741.99	1703.91
742.17	1740.77
742.36	1589.22
742.54	1673.19
742.73	1761.25
742.91	1748.97
743.10	1732.58
743.29	1712.10
743.47	1744.87
743.66	1544.17
743.84	1751.01
744.03	1675.24
744.21	1720.29
744.40	1712.10
744.59	1716.20
744.77	1687.53
744.96	1748.97
745.14	1632.23
745.33	1697.77
745.51	1716.20
745.70	1673.19
745.88	1683.43
746.07	1683.43
746.26	1714.15
746.44	1654.76
746.63	1540.07
746.81	1798.12
747.00	1777.64
747.18	1654.76
747.37	1583.08
747.55	1667.05
747.74	1966.05
747.92	1705.96
748.11	1816.55
748.29	1687.53
748.48	1757.16
748.66	1683.43
748.85	1689.57
749.03	1771.49
749.22	1689.57
749.41	1675.24
749.59	1755.11
749.78	1669.09
749.96	1667.05
750.15	1615.85
750.33	1753.06
750.52	1675.24
750.70	1673.19
750.89	1646.57
751.07	1697.77
751.26	1720.29
751.44	1619.94
751.63	1671.14
751.81	1648.61
752.00	1605.61
752.18	1740.77
752.37	1714.15
752.55	1675.24
752.74	1630.18
752.92	1665.00
753.10	1748.97
753.29	1708.01
753.47	1656.81
753.66	1564.65
753.84	1656.81
754.03	1611.75
754.21	1671.14
754.40	1650.66
754.58	1769.44
754.77	1779.68
754.95	1732.58
755.14	1689.57
755.32	1708.01
755.51	1660.90
755.69	1683.43
755.88	1621.99
756.06	1695.72
756.24	1566.70
756.43	1738.73
756.61	1615.85
756.80	1617.90
756.98	1685.48
757.17	1701.86
757.35	1693.67
757.54	1699.81
757.72	1716.20
757.90	1619.94
758.09	1728.49
758.27	1605.61
758.46	1669.09
758.64	1738.73
758.83	1619.94
759.01	1710.05
759.19	1798.12
759.38	1781.73
759.56	1722.34
759.75	1595.37
759.93	1691.62
760.12	1728.49
760.30	1691.62
760.48	1691.62
760.67	1689.57
760.85	1624.04
761.04	1644.52
761.22	1644.52
761.40	1683.43
761.59	1695.72
761.77	1710.05
761.96	1757.16
762.14	1593.32
762.32	1775.59
762.51	1734.63
762.69	1628.14
762.88	1724.39
763.06	1587.18
763.24	1705.96
763.43	1765.35
763.61	1619.94
763.80	1755.11
763.98	1812.45
764.16	1587.18
764.35	1591.27
764.53	1708.01
764.72	1665.00
764.90	1679.33
765.08	1689.57
765.27	1710.05
765.45	1642.47
765.63	1708.01
765.82	1736.68
766.00	1724.39
766.18	1644.52
766.37	1751.01
766.55	1697.77
766.74	1673.19
766.92	1599.46
767.10	1665.00
767.29	1771.49
767.47	1691.62
767.65	1669.09
767.84	1687.53
768.02	1783.78
768.20	1769.44
768.39	1710.05
768.57	1621.99
768.75	1671.14
768.94	1699.81
769.12	1654.76
769.30	1640.42
769.49	1691.62
769.67	1644.52
769.85	1839.08
770.04	1574.89
770.22	1691.62
770.40	1722.34
770.59	1683.43
770.77	1753.06
770.95	1734.63
771.14	1710.05
771.32	1681.38
771.50	1646.57
771.69	1681.38
771.87	1638.38
772.05	1689.57
772.24	1611.75
772.42	1746.92
772.60	1677.29
772.78	1689.57
772.97	1644.52
773.15	1732.58
773.33	1714.15
773.52	1626.09
773.70	1621.99
773.88	1736.68
774.07	1613.80
774.25	1662.95
774.43	1724.39
774.61	1654.76
774.80	1603.56
774.98	1757.16
775.16	1675.24
775.34	1662.95
775.53	1738.73
775.71	1671.14
775.89	1703.91
776.08	1611.75
776.26	1736.68
776.44	1765.35
776.62	1673.19
776.81	1628.14
776.99	1742.82
777.17	1839.08
777.35	1759.21
777.54	1734.63
777.72	1742.82
777.90	1611.75
778.08	1632.23
778.27	1669.09
778.45	1605.61
778.63	1679.33
778.81	1728.49
779.00	1681.38
779.18	1658.85
779.36	1802.21
779.54	1736.68
779.73	1761.25
779.91	1722.34
780.09	1710.05
780.27	1677.29
780.46	1654.76
780.64	1621.99
780.82	1689.57
781.00	1710.05
781.19	1617.90
781.37	1611.75
781.55	1804.26
781.73	1714.15
781.91	1685.48
782.10	1716.20
782.28	1839.08
782.46	1617.90
782.64	1716.20
782.82	1728.49
783.01	1726.44
783.19	1677.29
783.37	1724.39
783.55	1732.58
783.74	1658.85
783.92	1581.03
784.10	1705.96
784.28	1695.72
784.46	1697.77
784.64	1644.52
784.83	1777.64
785.01	1726.44
785.19	1773.54
785.37	1732.58
785.55	1644.52
785.74	1642.47
785.92	1621.99
786.10	1658.85
786.28	1802.21
786.46	1652.71
786.64	1712.10
786.83	1589.22
787.01	1728.49
787.19	1763.30
787.37	1746.92
787.55	1648.61
787.74	1593.32
787.92	1734.63
788.10	1730.53
788.28	1705.96
788.46	1728.49
788.64	1730.53
788.82	1751.01
789.01	1652.71
789.19	1658.85
789.37	1726.44
789.55	1691.62
789.73	1574.89
789.91	1726.44
790.09	1658.85
790.28	1660.90
790.46	1642.47
790.64	1757.16
790.82	1597.42
791.00	1669.09
791.18	1716.20
791.36	1701.86
791.55	1691.62
791.73	1691.62
791.91	1646.57
792.09	1642.47
792.27	1540.07
792.45	1753.06
792.63	1804.26
792.81	1722.34
793.00	1726.44
793.18	1667.05
793.36	1787.88
793.54	1699.81
793.72	1683.43
793.90	1710.05
794.08	1654.76
794.26	1648.61
794.44	1535.98
794.62	1742.82
794.81	1609.70
794.99	1724.39
795.17	1765.35
795.35	1720.29
795.53	1724.39
795.71	1695.72
795.89	1617.90
796.07	1595.37
796.25	1671.14
796.43	1796.07
796.61	1658.85
796.80	1611.75
796.98	1720.29
797.16	1701.86
797.34	1638.38
797.52	1642.47
797.70	1875.94
797.88	1683.43
798.06	1646.57
798.24	1740.77
798.42	1685.48
798.60	1761.25
798.78	1673.19
798.96	1740.77
799.14	1679.33
799.32	1712.10
799.51	1566.70
799.69	1724.39
799.87	1650.66
800.05	1658.85
800.23	1632.23
800.41	1734.63
800.59	1763.30
800.77	1669.09
800.95	1568.74
801.13	1691.62
801.31	1722.34
801.49	1775.59
801.67	1665.00
801.85	1646.57
802.03	1722.34
802.21	1716.20
802.39	1611.75
802.57	1697.77
802.75	1683.43
802.93	1753.06
803.11	1583.08
803.29	1738.73
803.47	1626.09
803.65	1650.66
803.83	1601.51
804.01	1667.05
804.19	1660.90
804.37	1566.70
804.55	1660.90
804.73	1665.00
804.91	1634.28
805.09	1724.39
805.27	1716.20
805.45	1626.09
805.63	1619.94
805.81	1673.19
805.99	1791.97
806.17	1673.19
806.35	1634.28
806.53	1720.29
806.71	1744.87
806.89	1693.67
807.07	1736.68
807.25	1730.53
807.43	1644.52
807.61	1781.73
807.79	1667.05
807.97	1705.96
808.15	1681.38
808.33	1685.48
808.51	1742.82
808.69	1705.96
808.87	1601.51
809.05	1603.56
809.23	1644.52
809.41	1630.18
809.59	1687.53
809.77	1767.40
809.95	1621.99
810.13	1734.63
810.31	1708.01
810.49	1671.14
810.67	1624.04
810.84	1781.73
811.02	1755.11
811.20	1654.76
811.38	1755.11
811.56	1562.60
811.74	1705.96
811.92	1646.57
812.10	1685.48
812.28	1748.97
812.46	1701.86
812.64	1650.66
812.82	1576.94
813.00	1679.33
813.18	1613.80
813.36	1677.29
813.53	1673.19
813.71	1738.73
813.89	1726.44
814.07	1683.43
814.25	1679.33
814.43	1691.62
814.61	1617.90
814.79	1699.81
814.97	1646.57
815.15	1740.77
815.33	1638.38
815.50	1607.66
815.68	1626.09
815.86	1740.77
816.04	1708.01
816.22	1603.56
816.40	1744.87
816.58	1673.19
816.76	1673.19
816.94	1748.97
817.11	1632.23
817.29	1658.85
817.47	1665.00
817.65	1624.04
817.83	1728.49
818.01	1691.62
818.19	1632.23
818.37	1650.66
818.54	1736.68
818.72	1703.91
818.90	1708.01
819.08	1607.66
819.26	1730.53
819.44	1718.25
819.62	1636.33
819.80	1556.46
819.97	1710.05
820.15	1574.89
820.33	1689.57
820.51	1646.57
820.69	1650.66
820.87	1677.29
821.05	1687.53
821.22	1673.19
821.40	1615.85
821.58	1781.73
821.76	1644.52
821.94	1667.05
822.12	1687.53
822.29	1748.97
822.47	1669.09
822.65	1691.62
822.83	1591.27
823.01	1691.62
823.19	1605.61
823.36	1681.38
823.54	1640.42
823.72	1642.47
823.90	1736.68
824.08	1554.41
824.25	1746.92
824.43	1642.47
824.61	1609.70
824.79	1712.10
824.97	1581.03
825.15	1671.14
825.32	1615.85
825.50	1718.25
825.68	1564.65
825.86	1714.15
826.04	1662.95
826.21	1734.63
826.39	1667.05
826.57	1705.96
826.75	1714.15
826.93	1667.05
827.10	1699.81
827.28	1628.14
827.46	1767.40
827.64	1740.77
827.81	1615.85
827.99	1595.37
828.17	1648.61
828.35	1601.51
828.53	1689.57
828.70	1679.33
828.88	1605.61
829.06	1572.84
829.24	1710.05
829.41	1720.29
829.59	1744.87
829.77	1701.86
829.95	1761.25
830.12	1576.94
830.30	1628.14
830.48	1724.39
830.66	1611.75
830.84	1683.43
831.01	1662.95
831.19	1617.90
831.37	1728.49
831.55	1685.48
831.72	1773.54
831.90	1726.44
832.08	1642.47
832.25	1726.44
832.43	1771.49
832.61	1738.73
832.79	1562.60
832.96	1667.05
833.14	1712.10
833.32	1691.62
833.50	1658.85
833.67	1660.90
833.85	1613.80
834.03	1583.08
834.20	1675.24
834.38	1785.83
834.56	1738.73
834.74	1634.28
834.91	1708.01
835.09	1679.33
835.27	1550.31
835.44	1763.30
835.62	1570.79
835.80	1630.18
835.98	1634.28
836.15	1687.53
836.33	1665.00
836.51	1574.89
836.68	1644.52
836.86	1621.99
837.04	1726.44
837.21	1748.97
837.39	1710.05
837.57	1665.00
837.75	1667.05
837.92	1628.14
838.10	1669.09
838.28	1601.51
838.45	1671.14
838.63	1613.80
838.81	1669.09
838.98	1607.66
839.16	1796.07
839.34	1658.85
839.51	1601.51
839.69	1624.04
839.87	1634.28
840.04	1691.62
840.22	1920.99
840.40	1654.76
840.57	1605.61
840.75	1642.47
840.93	1548.26
841.10	1581.03
841.28	1712.10
841.46	1675.24
841.63	1648.61
841.81	1558.50
841.98	1578.98
842.16	1724.39
842.34	1656.81
842.51	1546.22
842.69	1658.85
842.87	1705.96
843.04	1716.20
843.22	1644.52
843.40	1642.47
843.57	1703.91
843.75	1628.14
843.92	1681.38
844.10	1714.15
844.28	1671.14
844.45	1605.61
844.63	1673.19
844.81	1724.39
844.98	1794.02
845.16	1654.76
845.33	1757.16
845.51	1662.95
845.69	1665.00
845.86	1697.77
846.04	1576.94
846.21	1599.46
846.39	1603.56
846.57	1624.04
846.74	1587.18
846.92	1677.29
847.09	1644.52
847.27	1705.96
847.45	1695.72
847.62	1644.52
847.80	1638.38
847.97	1621.99
848.15	1597.42
848.32	1638.38
848.50	1652.71
848.68	1605.61
848.85	1665.00
849.03	1619.94
849.20	1646.57
849.38	1615.85
849.56	1585.13
849.73	1648.61
849.91	1669.09
850.08	1726.44
850.26	1570.79
850.43	1581.03
850.61	1728.49
850.78	1613.80
850.96	1646.57
851.14	1509.35
851.31	1771.49
851.49	1597.42
851.66	1660.90
851.84	1552.36
852.01	1710.05
852.19	1593.32
852.36	1660.90
852.54	1746.92
852.71	1599.46
852.89	1689.57
853.07	1648.61
853.24	1554.41
853.42	1589.22
853.59	1626.09
853.77	1632.23
853.94	1652.71
854.12	1730.53
854.29	1601.51
854.47	1597.42
854.64	1667.05
854.82	1691.62
854.99	1703.91
855.17	1654.76
855.34	1556.46
855.52	1669.09
855.69	1744.87
855.87	1554.41
856.04	1671.14
856.22	1740.77
856.39	1673.19
856.57	1628.14
856.74	1722.34
856.92	1753.06
857.09	1624.04
857.27	1656.81
857.44	1673.19
857.62	1720.29
857.79	1695.72
857.97	1761.25
858.14	1642.47
858.32	1714.15
858.49	1671.14
858.67	1689.57
858.84	1613.80
859.02	1746.92
859.19	1703.91
859.37	1574.89
859.54	1617.90
859.72	1730.53
859.89	1642.47
860.06	1548.26
860.24	1638.38
860.41	1714.15
860.59	1650.66
860.76	1726.44
860.94	1486.83
861.11	1703.91
861.29	1714.15
861.46	1624.04
861.64	1703.91
861.81	1732.58
861.98	1638.38
862.16	1591.27
862.33	1554.41
862.51	1685.48
862.68	1636.33
862.86	1636.33
863.03	1581.03
863.21	1617.90
863.38	1603.56
863.55	1621.99
863.73	1642.47
863.90	1718.25
864.08	1572.84
864.25	1710.05
864.43	1703.91
864.60	1652.71
864.77	1601.51
864.95	1673.19
865.12	1650.66
865.30	1691.62
865.47	1740.77
865.64	1656.81
865.82	1658.85
865.99	1775.59
866.17	1660.90
866.34	1685.48
866.51	1591.27
866.69	1615.85
866.86	1818.60
867.04	1679.33
867.21	1667.05
867.38	1540.07
867.56	1646.57
867.73	1718.25
867.91	1599.46
868.08	1628.14
868.25	1685.48
868.43	1660.90
868.60	1654.76
868.78	1621.99
868.95	1697.77
869.12	1705.96
869.30	1650.66
869.47	1728.49
869.64	1648.61
869.82	1679.33
869.99	1681.38
870.16	1662.95
870.34	1658.85
870.51	1830.88
870.69	1613.80
870.86	1656.81
871.03	1703.91
871.21	1621.99
871.38	1744.87
871.55	1640.42
871.73	1703.91
871.90	1621.99
872.07	1660.90
872.25	1531.88
872.42	1656.81
872.59	1578.98
872.77	1679.33
872.94	1656.81
873.11	1624.04
873.29	1759.21
873.46	1644.52
873.63	1718.25
873.81	1634.28
873.98	1710.05
874.15	1609.70
874.33	1609.70
874.50	1697.77
874.67	1669.09
874.85	1560.55
875.02	1607.66
875.19	1611.75
875.37	1601.51
875.54	1560.55
875.71	1652.71
875.88	1689.57
876.06	1759.21
876.23	1777.64
876.40	1728.49
876.58	1613.80
876.75	1679.33
876.92	1581.03
877.10	1660.90
877.27	1669.09
877.44	1630.18
877.61	1611.75
877.79	1634.28
877.96	1671.14
878.13	1648.61
878.31	1576.94
878.48	1671.14
878.65	1673.19
878.82	1589.22
879.00	1638.38
879.17	1703.91
879.34	1591.27
879.51	1617.90
879.69	1681.38
879.86	1562.60
880.03	1693.67
880.21	1601.51
880.38	1730.53
880.55	1689.57
880.72	1646.57
880.90	1605.61
881.07	1544.17
881.24	1685.48
881.41	1576.94
881.59	1632.23
881.76	1669.09
881.93	1773.54
882.10	1685.48
882.28	1615.85
882.45	1746.92
882.62	1660.90
882.79	1755.11
882.96	1550.31
883.14	1642.47
883.31	1658.85
883.48	1636.33
883.65	1689.57
883.83	1662.95
884.00	1621.99
884.17	1615.85
884.34	1609.70
884.51	1615.85
884.69	1724.39
884.86	1576.94
885.03	1650.66
885.20	1523.69
885.38	1628.14
885.55	1705.96
885.72	1699.81
885.89	1615.85
886.06	1683.43
886.24	1607.66
886.41	1615.85
886.58	1724.39
886.75	1748.97
886.92	1624.04
887.10	1578.98
887.27	1626.09
887.44	1781.73
887.61	1751.01
887.78	1662.95
887.95	1636.33
888.13	1636.33
888.30	1554.41
888.47	1626.09
888.64	1591.27
888.81	1681.38
888.99	1603.56
889.16	1658.85
889.33	1615.85
889.50	1630.18
889.67	1667.05
889.84	1560.55
890.01	1726.44
890.19	1744.87
890.36	1675.24
890.53	1736.68
890.70	1574.89
890.87	1611.75
891.04	1624.04
891.22	1650.66
891.39	1576.94
891.56	1609.70
891.73	1658.85
891.90	1603.56
892.07	1603.56
892.24	1669.09
892.42	1603.56
892.59	1667.05
892.76	1642.47
892.93	1550.31
893.10	1671.14
893.27	1726.44
893.44	1519.59
893.61	1599.46
893.79	1642.47
893.96	1626.09
894.13	1652.71
894.30	1660.90
894.47	1679.33
894.64	1714.15
894.81	1656.81
894.98	1617.90
895.15	1699.81
895.33	1628.14
895.50	1607.66
895.67	1658.85
895.84	1615.85
896.01	1632.23
896.18	1492.97
896.35	1777.64
896.52	1691.62
896.69	1640.42
896.86	1675.24
897.04	1701.86
897.21	1691.62
897.38	1744.87
897.55	1662.95
897.72	1675.24
897.89	1658.85
898.06	1697.77
898.23	1513.45
898.40	1677.29
898.57	1652.71
898.74	1693.67
898.91	1581.03
899.08	1576.94
899.26	1591.27
899.43	1712.10
899.60	1665.00
899.77	1646.57
899.94	1560.55
900.11	1658.85
900.28	1636.33
900.45	1683.43
900.62	1630.18
900.79	1716.20
900.96	1705.96
901.13	1667.05
901.30	1597.42
901.47	1605.61
901.64	1632.23
901.81	1671.14
901.98	1773.54
902.15	1732.58
902.32	1523.69
902.49	1648.61
902.66	1748.97
902.83	1658.85
903.01	1585.13
903.18	1638.38
903.35	1667.05
903.52	1613.80
903.69	1607.66
903.86	1638.38
904.03	1642.47
904.20	1701.86
904.37	1665.00
904.54	1570.79
904.71	1630.18
904.88	1722.34
905.05	1474.54
905.22	1656.81
905.39	1515.50
905.56	1581.03
905.73	1574.89
905.90	1621.99
906.07	1660.90
906.24	1710.05
906.41	1650.66
906.58	1660.90
906.75	1550.31
906.92	1630.18
907.09	1556.46
907.26	1626.09
907.43	1519.59
907.60	1658.85
907.77	1644.52
907.93	1617.90
908.10	1607.66
908.27	1718.25
908.44	1609.70
908.61	1548.26
908.78	1576.94
908.95	1710.05
909.12	1626.09
909.29	1652.71
909.46	1548.26
909.63	1689.57
909.80	1609.70
909.97	1675.24
910.14	1673.19
910.31	1630.18
910.48	1642.47
910.65	1679.33
910.82	1632.23
910.99	1636.33
911.16	1650.66
911.33	1685.48
911.50	1581.03
911.66	1718.25
911.83	1683.43
912.00	1535.98
912.17	1523.69
912.34	1568.74
912.51	1658.85
912.68	1619.94
912.85	1697.77
913.02	1703.91
913.19	1611.75
913.36	1681.38
913.53	1763.30
913.70	1542.12
913.86	1708.01
914.03	1757.16
914.20	1587.18
914.37	1656.81
914.54	1597.42
914.71	1689.57
914.88	1679.33
915.05	1576.94
915.22	1634.28
915.39	1626.09
915.55	1560.55
915.72	1538.02
915.89	1615.85
916.06	1640.42
916.23	1708.01
916.40	1632.23
916.57	1560.55
916.74	1624.04
916.91	1613.80
917.07	1531.88
917.24	1603.56
917.41	1621.99
917.58	1634.28
917.75	1576.94
917.92	1591.27
918.09	1535.98
918.26	1624.04
918.42	1638.38
918.59	1650.66
918.76	1654.76
918.93	1607.66
919.10	1585.13
919.27	1617.90
919.44	1699.81
919.60	1726.44
919.77	1603.56
919.94	1617.90
920.11	1605.61
920.28	1732.58
920.45	1591.27
920.61	1564.65
920.78	1691.62
920.95	1691.62
921.12	1724.39
921.29	1607.66
921.46	1531.88
921.62	1566.70
921.79	1693.67
921.96	1695.72
922.13	1626.09
922.30	1570.79
922.47	1617.90
922.63	1611.75
922.80	1642.47
922.97	1566.70
923.14	1525.74
923.31	1538.02
923.47	1648.61
923.64	1808.36
923.81	1638.38
923.98	1722.34
924.15	1613.80
924.32	1681.38
924.48	1634.28
924.65	1746.92
924.82	1572.84
924.99	1576.94
925.15	1585.13
925.32	1781.73
925.49	1621.99
925.66	1665.00
925.83	1615.85
925.99	1597.42
926.16	1755.11
926.33	1656.81
926.50	1531.88
926.67	1693.67
926.83	1667.05
927.00	1683.43
927.17	1660.90
927.34	1546.22
927.50	1662.95
927.67	1810.40
927.84	1699.81
928.01	1667.05
928.17	1599.46
928.34	1638.38
928.51	1662.95
928.68	1558.50
928.84	1712.10
929.01	1583.08
929.18	1691.62
929.35	1617.90
929.51	1738.73
929.68	1597.42
929.85	1583.08
930.02	1617.90
930.18	1662.95
930.35	1656.81
930.52	1732.58
930.69	1720.29
930.85	1693.67
931.02	1583.08
931.19	1689.57
931.36	1646.57
931.52	1650.66
931.69	1658.85
931.86	1603.56
932.02	1601.51
932.19	1587.18
932.36	1673.19
932.53	1695.72
932.69	1605.61
932.86	1720.29
933.03	1660.90
933.19	1552.36
933.36	1652.71
933.53	1769.44
933.70	1626.09
933.86	1650.66
934.03	1687.53
934.20	1589.22
934.36	1654.76
934.53	1617.90
934.70	1638.38
934.86	1665.00
935.03	1626.09
935.20	1597.42
935.36	1564.65
935.53	1617.90
935.70	1609.70
935.86	1691.62
936.03	1585.13
936.20	1570.79
936.36	1658.85
936.53	1699.81
936.70	1611.75
936.86	1818.60
937.03	1611.75
937.20	1566.70
937.36	1644.52
937.53	1482.73
937.70	1554.41
937.86	1583.08
938.03	1658.85
938.20	1794.02
938.36	1634.28
938.53	1634.28
938.70	1556.46
938.86	1691.62
939.03	1708.01
939.20	1574.89
939.36	1609.70
939.53	1652.71
939.70	1828.84
939.86	1583.08
940.03	1673.19
940.19	1554.41
940.36	1695.72
940.53	1628.14
940.69	1624.04
940.86	1708.01
941.03	1585.13
941.19	1564.65
941.36	1609.70
941.52	1695.72
941.69	1699.81
941.86	1681.38
942.02	1722.34
942.19	1718.25
942.35	1648.61
942.52	1648.61
942.69	1609.70
942.85	1564.65
943.02	1662.95
943.18	1630.18
943.35	1644.52
943.52	1605.61
943.68	1556.46
943.85	1646.57
944.01	1662.95
944.18	1591.27
944.35	1744.87
944.51	1603.56
944.68	1578.98
944.84	1624.04
945.01	1599.46
945.17	1624.04
945.34	1626.09
945.51	1699.81
945.67	1675.24
945.84	1595.37
946.00	1597.42
946.17	1619.94
946.33	1581.03
946.50	1722.34
946.67	1648.61
946.83	1576.94
947.00	1671.14
947.16	1638.38
947.33	1654.76
947.49	1527.78
947.66	1542.12
947.82	1665.00
947.99	1523.69
948.16	1673.19
948.32	1615.85
948.49	1615.85
948.65	1683.43
948.82	1652.71
948.98	1658.85
949.15	1550.31
949.31	1671.14
949.48	1650.66
949.64	1607.66
949.81	1587.18
949.97	1611.75
950.14	1597.42
950.30	1509.35
950.47	1691.62
950.63	1675.24
950.80	1617.90
950.96	1628.14
951.13	1646.57
951.30	1662.95
951.46	1646.57
951.63	1691.62
951.79	1656.81
951.96	1667.05
952.12	1578.98
952.29	1603.56
952.45	1572.84
952.62	1613.80
952.78	1685.48
952.94	1634.28
953.11	1609.70
953.27	1454.06
953.44	1708.01
953.60	1595.37
953.77	1619.94
953.93	1673.19
954.10	1658.85
954.26	1603.56
954.43	1640.42
954.59	1634.28
954.76	1734.63
954.92	1630.18
955.09	1679.33
955.25	1562.60
955.42	1640.42
955.58	1718.25
955.75	1667.05
955.91	1611.75
956.07	1587.18
956.24	1624.04
956.40	1644.52
956.57	1691.62
956.73	1662.95
956.90	1576.94
957.06	1605.61
957.23	1605.61
957.39	1595.37
957.56	1658.85
957.72	1531.88
957.88	1576.94
958.05	1667.05
958.21	1675.24
958.38	1568.74
958.54	1662.95
958.71	1697.77
958.87	1613.80
959.03	1634.28
959.20	1644.52
959.36	1601.51
959.53	1634.28
959.69	1605.61
959.85	1630.18
960.02	1540.07
960.18	1589.22
960.35	1640.42
960.51	1683.43
960.68	1576.94
960.84	1611.75
961.00	1570.79
961.17	1665.00
961.33	1630.18
961.50	1593.32
961.66	1642.47
961.82	1558.50
961.99	1671.14
962.15	1636.33
962.31	1572.84
962.48	1615.85
962.64	1671.14
962.81	1658.85
962.97	1693.67
963.13	1656.81
963.30	1605.61
963.46	1576.94
963.62	1560.55
963.79	1609.70
963.95	1667.05
964.12	1617.90
964.28	1642.47
964.44	1638.38
964.61	1646.57
964.77	1638.38
964.93	1722.34
965.10	1673.19
965.26	1572.84
965.42	1644.52
965.59	1636.33
965.75	1630.18
965.92	1699.81
966.08	1710.05
966.24	1621.99
966.41	1591.27
966.57	1667.05
966.73	1650.66
966.90	1673.19
967.06	1662.95
967.22	1603.56
967.39	1646.57
967.55	1624.04
967.71	1644.52
967.88	1638.38
968.04	1648.61
968.20	1558.50
968.37	1574.89
968.53	1552.36
968.69	1613.80
968.85	1697.77
969.02	1640.42
969.18	1681.38
969.34	1552.36
969.51	1671.14
969.67	1710.05
969.83	1568.74
970.00	1650.66
970.16	1630.18
970.32	1591.27
970.48	1761.25
970.65	1609.70
970.81	1597.42
970.97	1673.19
971.14	1501.16
971.30	1736.68
971.46	1558.50
971.63	1642.47
971.79	1699.81
971.95	1630.18
972.11	1550.31
972.28	1607.66
972.44	1605.61
972.60	1601.51
972.76	1617.90
972.93	1556.46
973.09	1689.57
973.25	1712.10
973.42	1595.37
973.58	1650.66
973.74	1687.53
973.90	1652.71
974.07	1519.59
974.23	1630.18
974.39	1705.96
974.55	1632.23
974.72	1628.14
974.88	1601.51
975.04	1699.81
975.20	1628.14
975.37	1628.14
975.53	1621.99
975.69	1652.71
975.85	1570.79
976.01	1634.28
976.18	1613.80
976.34	1601.51
976.50	1652.71
976.66	1685.48
976.83	1730.53
976.99	1548.26
977.15	1648.61
977.31	1501.16
977.47	1732.58
977.64	1636.33
977.80	1650.66
977.96	1728.49
978.12	1642.47
978.29	1648.61
978.45	1576.94
978.61	1611.75
978.77	1691.62
978.93	1527.78
979.10	1619.94
979.26	1597.42
979.42	1615.85
979.58	1542.12
979.74	1650.66
979.91	1648.61
980.07	1499.11
980.23	1576.94
980.39	1630.18
980.55	1632.23
980.71	1564.65
980.88	1546.22
981.04	1587.18
981.20	1708.01
981.36	1726.44
981.52	1626.09
981.68	1507.30
981.85	1671.14
982.01	1607.66
982.17	1626.09
982.33	1603.56
982.49	1681.38
982.65	1548.26
982.82	1581.03
982.98	1673.19
983.14	1519.59
983.30	1679.33
983.46	1634.28
983.62	1675.24
983.79	1564.65
983.95	1609.70
984.11	1519.59
984.27	1591.27
984.43	1615.85
984.59	1660.90
984.75	1646.57
984.91	1681.38
985.08	1689.57
985.24	1587.18
985.40	1581.03
985.56	1662.95
985.72	1691.62
985.88	1654.76
986.04	1593.32
986.20	1533.93
986.37	1671.14
986.53	1531.88
986.69	1611.75
986.85	1501.16
987.01	1527.78
987.17	1630.18
987.33	1621.99
987.49	1603.56
987.65	1642.47
987.82	1593.32
987.98	1638.38
988.14	1638.38
988.30	1650.66
988.46	1746.92
988.62	1650.66
988.78	1617.90
988.94	1679.33
989.10	1665.00
989.26	1564.65
989.42	1656.81
989.59	1560.55
989.75	1675.24
989.91	1746.92
990.07	1574.89
990.23	1607.66
990.39	1658.85
990.55	1673.19
990.71	1578.98
990.87	1628.14
991.03	1615.85
991.19	1669.09
991.35	1583.08
991.51	1585.13
991.67	1617.90
991.83	1515.50
992.00	1605.61
992.16	1677.29
992.32	1667.05
992.48	1695.72
992.64	1574.89
992.80	1662.95
992.96	1640.42
993.12	1591.27
993.28	1605.61
993.44	1572.84
993.60	1601.51
993.76	1558.50
993.92	1628.14
994.08	1677.29
994.24	1621.99
994.40	1599.46
994.56	1673.19
994.72	1585.13
994.88	1517.54
995.04	1599.46
995.20	1542.12
995.36	1583.08
995.52	1691.62
995.68	1566.70
995.84	1548.26
996.00	1726.44
996.16	1617.90
996.32	1527.78
996.48	1619.94
996.64	1689.57
996.80	1443.82
996.96	1585.13
997.12	1621.99
997.28	1583.08
997.44	1529.83
997.60	1576.94
997.76	1724.39
997.92	1603.56
998.08	1593.32
998.24	1595.37
998.40	1665.00
998.56	1566.70
998.72	1544.17
998.88	1556.46
999.04	1648.61
999.20	1617.90
999.36	1550.31
999.52	1708.01
999.68	1628.14
999.84	1652.71
1000.00	1642.47
1000.16	1730.53
1000.32	1488.87
1000.48	1705.96
1000.64	1542.12
1000.80	1546.22
1000.95	1490.92
1001.11	1619.94
1001.27	1486.83
1001.43	1603.56
1001.59	1523.69
1001.75	1486.83
1001.91	1628.14
1002.07	1566.70
1002.23	1619.94
1002.39	1552.36
1002.55	1603.56
1002.71	1603.56
1002.87	1581.03
1003.03	1531.88
1003.19	1611.75
1003.34	1699.81
1003.50	1607.66
1003.66	1673.19
1003.82	1691.62
1003.98	1519.59
1004.14	1658.85
1004.30	1552.36
1004.46	1626.09
1004.62	1605.61
1004.78	1550.31
1004.94	1562.60
1005.09	1648.61
1005.25	1599.46
1005.41	1558.50
1005.57	1656.81
1005.73	1628.14
1005.89	1671.14
1006.05	1679.33
1006.21	1636.33
1006.37	1548.26
1006.52	1517.54
1006.68	1531.88
1006.84	1687.53
1007.00	1570.79
1007.16	1634.28
1007.32	1605.61
1007.48	1574.89
1007.64	1652.71
1007.79	1544.17
1007.95	1583.08
1008.11	1683.43
1008.27	1583.08
1008.43	1642.47
1008.59	1593.32
1008.75	1640.42
1008.91	1650.66
1009.06	1609.70
1009.22	1650.66
1009.38	1601.51
1009.54	1617.90
1009.70	1605.61
1009.86	1593.32
1010.01	1687.53
1010.17	1615.85
1010.33	1710.05
1010.49	1613.80
1010.65	1675.24
1010.81	1599.46
1010.96	1572.84
1011.12	1566.70
1011.28	1568.74
1011.44	1644.52
1011.60	1636.33
1011.76	1585.13
1011.91	1705.96
1012.07	1564.65
1012.23	1552.36
1012.39	1495.02
1012.55	1699.81
1012.71	1556.46
1012.86	1624.04
1013.02	1642.47
1013.18	1574.89
1013.34	1517.54
1013.50	1683.43
1013.65	1597.42
1013.81	1624.04
1013.97	1597.42
1014.13	1652.71
1014.29	1572.84
1014.44	1732.58
1014.60	1611.75
1014.76	1626.09
1014.92	1658.85
1015.07	1652.71
1015.23	1658.85
1015.39	1634.28
1015.55	1603.56
1015.71	1548.26
1015.86	1589.22
1016.02	1513.45
1016.18	1531.88
1016.34	1681.38
1016.49	1626.09
1016.65	1671.14
1016.81	1597.42
1016.97	1574.89
1017.12	1673.19
1017.28	1640.42
1017.44	1540.07
1017.60	1576.94
1017.75	1714.15
1017.91	1535.98
1018.07	1669.09
1018.23	1685.48
1018.38	1599.46
1018.54	1538.02
1018.70	1632.23
1018.86	1603.56
1019.01	1527.78
1019.17	1513.45
1019.33	1658.85
1019.49	1632.23
1019.64	1675.24
1019.80	1621.99
1019.96	1572.84
1020.12	1720.29
1020.27	1583.08
1020.43	1609.70
1020.59	1683.43
1020.74	1562.60
1020.90	1712.10
1021.06	1589.22
1021.22	1646.57
1021.37	1634.28
1021.53	1560.55
1021.69	1685.48
1021.84	1589.22
1022.00	1585.13
1022.16	1636.33
1022.31	1640.42
1022.47	1660.90
1022.63	1675.24
1022.79	1523.69
1022.94	1585.13
1023.10	1665.00
1023.26	1697.77
1023.41	1595.37
1023.57	1626.09
1023.73	1679.33
1023.88	1646.57
1024.04	1552.36
1024.20	1630.18
1024.35	1593.32
1024.51	1636.33
1024.67	1613.80
1024.82	1669.09
1024.98	1517.54
1025.14	1693.67
1025.29	1613.80
1025.45	1599.46
1025.61	1587.18
1025.76	1691.62
1025.92	1636.33
1026.08	1615.85
1026.23	1687.53
1026.39	1648.61
1026.55	1603.56
1026.70	1581.03
1026.86	1667.05
1027.02	1697.77
1027.17	1654.76
1027.33	1613.80
1027.48	1654.76
1027.64	1675.24
1027.80	1609.70
1027.95	1605.61
1028.11	1470.44
1028.27	1665.00
1028.42	1519.59
1028.58	1566.70
1028.73	1558.50
1028.89	1505.26
1029.05	1730.53
1029.20	1662.95
>>>>>End Processed Spectral Data<<<<<
