SpectraSuite Data File
++++++++++++++++++++++++++++++++++++
Date: Fri Jun 02 14:57:16 CEST 2017
User: INFO_000
Dark Spectrum Present: No
Reference Spectrum Present: No
Number of Sampled Component Spectra: 1
Spectrometers: USB4H00879
Integration Time (usec): 80000 (USB4H00879)
Spectra Averaged: 1 (USB4H00879)
Boxcar Smoothing: 0 (USB4H00879)
Correct for Electrical Dark: No (USB4H00879)
Strobe/Lamp Enabled: No (USB4H00879)
Correct for Detector Non-linearity: No (USB4H00879)
Correct for Stray Light: No (USB4H00879)
Number of Pixels in Processed Spectrum: 3648
>>>>>Begin Processed Spectral Data<<<<<
345.13	1279.98
345.34	1279.98
345.56	1279.98
345.78	1318.89
345.99	1257.45
346.21	1751.01
346.42	1701.86
346.64	1642.47
346.86	1777.64
347.07	1724.39
347.29	1748.97
347.50	1626.09
347.72	1699.81
347.94	1808.36
348.15	1583.08
348.37	1605.61
348.59	1640.42
348.80	1689.57
349.02	1660.90
349.23	1728.49
349.45	1761.25
349.67	1769.44
349.88	1732.58
350.10	1783.78
350.31	1757.16
350.53	1705.96
350.75	1877.99
350.96	1626.09
351.18	1697.77
351.39	1742.82
351.61	1667.05
351.82	1728.49
352.04	1828.84
352.26	1712.10
352.47	1726.44
352.69	1761.25
352.90	1642.47
353.12	1679.33
353.34	1691.62
353.55	1796.07
353.77	1701.86
353.98	1722.34
354.20	1705.96
354.41	1753.06
354.63	1751.01
354.85	1888.23
355.06	1714.15
355.28	1570.79
355.49	1716.20
355.71	1699.81
355.92	1679.33
356.14	1753.06
356.35	1701.86
356.57	1740.77
356.79	1730.53
357.00	1697.77
357.22	1763.30
357.43	1654.76
357.65	1814.50
357.86	1671.14
358.08	1800.16
358.29	1773.54
358.51	1798.12
358.72	1757.16
358.94	1716.20
359.16	1656.81
359.37	1675.24
359.59	1710.05
359.80	1738.73
360.02	1732.58
360.23	1724.39
360.45	1714.15
360.66	1708.01
360.88	1644.52
361.09	1677.29
361.31	1732.58
361.52	1775.59
361.74	1804.26
361.95	1804.26
362.17	1705.96
362.38	1757.16
362.60	1699.81
362.81	1714.15
363.03	1689.57
363.24	1699.81
363.46	1738.73
363.67	1732.58
363.89	1681.38
364.10	1806.31
364.32	1673.19
364.53	1787.88
364.75	1611.75
364.96	1734.63
365.18	1648.61
365.39	1687.53
365.61	1660.90
365.82	1839.08
366.04	1611.75
366.25	1650.66
366.47	1685.48
366.68	1689.57
366.90	1667.05
367.11	1753.06
367.33	1798.12
367.54	1734.63
367.76	1734.63
367.97	1759.21
368.19	1773.54
368.40	1744.87
368.62	1683.43
368.83	1568.74
369.05	1755.11
369.26	1708.01
369.48	1683.43
369.69	1562.60
369.91	1701.86
370.12	1650.66
370.33	1714.15
370.55	1542.12
370.76	1677.29
370.98	1783.78
371.19	1685.48
371.41	1640.42
371.62	1708.01
371.84	1574.89
372.05	1798.12
372.27	1689.57
372.48	1669.09
372.69	1767.40
372.91	1724.39
373.12	1734.63
373.34	1687.53
373.55	1748.97
373.77	1777.64
373.98	1652.71
374.20	1802.21
374.41	1808.36
374.62	1683.43
374.84	1751.01
375.05	1705.96
375.27	1701.86
375.48	1736.68
375.70	1673.19
375.91	1777.64
376.12	1753.06
376.34	1691.62
376.55	1742.82
376.77	1722.34
376.98	1646.57
377.19	1708.01
377.41	1734.63
377.62	1724.39
377.84	1718.25
378.05	1781.73
378.27	1675.24
378.48	1845.22
378.69	1841.12
378.91	1779.68
379.12	1703.91
379.34	1703.91
379.55	1751.01
379.76	1789.92
379.98	1644.52
380.19	1662.95
380.41	1728.49
380.62	1773.54
380.83	1732.58
381.05	1636.33
381.26	1800.16
381.47	1638.38
381.69	1681.38
381.90	1781.73
382.12	1671.14
382.33	1683.43
382.54	1679.33
382.76	1748.97
382.97	1693.67
383.19	1673.19
383.40	1728.49
383.61	1689.57
383.83	1658.85
384.04	1683.43
384.25	1742.82
384.47	1722.34
384.68	1683.43
384.89	1585.13
385.11	1679.33
385.32	1675.24
385.54	1617.90
385.75	1626.09
385.96	1697.77
386.18	1640.42
386.39	1658.85
386.60	1671.14
386.82	1710.05
387.03	1673.19
387.24	1802.21
387.46	1658.85
387.67	1697.77
387.88	1726.44
388.10	1708.01
388.31	1695.72
388.52	1839.08
388.74	1740.77
388.95	1740.77
389.16	1683.43
389.38	1681.38
389.59	1783.78
389.80	1732.58
390.02	1746.92
390.23	1804.26
390.44	1732.58
390.66	1619.94
390.87	1673.19
391.08	1748.97
391.30	1796.07
391.51	1722.34
391.72	1681.38
391.94	1802.21
392.15	1646.57
392.36	1691.62
392.58	1699.81
392.79	1693.67
393.00	1667.05
393.22	1658.85
393.43	1826.79
393.64	1826.79
393.85	1705.96
394.07	1613.80
394.28	1703.91
394.49	1728.49
394.71	1726.44
394.92	1820.64
395.13	1630.18
395.35	1636.33
395.56	1687.53
395.77	1662.95
395.98	1660.90
396.20	1791.97
396.41	1701.86
396.62	1671.14
396.84	1652.71
397.05	1609.70
397.26	1699.81
397.47	1767.40
397.69	1683.43
397.90	1839.08
398.11	1740.77
398.32	1658.85
398.54	1624.04
398.75	1665.00
398.96	1632.23
399.18	1845.22
399.39	1646.57
399.60	1734.63
399.81	1712.10
400.03	1705.96
400.24	1929.19
400.45	1769.44
400.66	1699.81
400.88	1597.42
401.09	1861.60
401.30	1683.43
401.51	1769.44
401.73	1755.11
401.94	1765.35
402.15	1640.42
402.36	1769.44
402.58	1712.10
402.79	1845.22
403.00	1716.20
403.21	1734.63
403.43	1720.29
403.64	1759.21
403.85	1728.49
404.06	1806.31
404.27	1638.38
404.49	1677.29
404.70	1675.24
404.91	1779.68
405.12	1734.63
405.34	1751.01
405.55	1802.21
405.76	1628.14
405.97	1615.85
406.19	1765.35
406.40	1662.95
406.61	1703.91
406.82	1757.16
407.03	1667.05
407.25	1638.38
407.46	1779.68
407.67	1740.77
407.88	1798.12
408.09	1714.15
408.31	1691.62
408.52	1732.58
408.73	1607.66
408.94	1636.33
409.15	1701.86
409.37	1681.38
409.58	1679.33
409.79	1718.25
410.00	1781.73
410.21	1742.82
410.43	1689.57
410.64	1613.80
410.85	1728.49
411.06	1703.91
411.27	1703.91
411.48	1812.45
411.70	1781.73
411.91	1701.86
412.12	1769.44
412.33	1798.12
412.54	1652.71
412.76	1716.20
412.97	1869.80
413.18	1679.33
413.39	1789.92
413.60	1722.34
413.81	1732.58
414.03	1658.85
414.24	1675.24
414.45	1826.79
414.66	1675.24
414.87	1677.29
415.08	1751.01
415.30	1671.14
415.51	1761.25
415.72	1791.97
415.93	1691.62
416.14	1712.10
416.35	1697.77
416.56	1748.97
416.78	1759.21
416.99	1714.15
417.20	1720.29
417.41	1744.87
417.62	1693.67
417.83	1738.73
418.04	1748.97
418.26	1785.83
418.47	1671.14
418.68	1691.62
418.89	1820.64
419.10	1900.52
419.31	1710.05
419.52	1683.43
419.73	1679.33
419.95	1777.64
420.16	1685.48
420.37	1652.71
420.58	1810.40
420.79	1562.60
421.00	1755.11
421.21	1679.33
421.42	1679.33
421.63	1757.16
421.85	1689.57
422.06	1765.35
422.27	1753.06
422.48	1722.34
422.69	1681.38
422.90	1675.24
423.11	1677.29
423.32	1796.07
423.53	1830.88
423.75	1689.57
423.96	1738.73
424.17	1718.25
424.38	1822.69
424.59	1712.10
424.80	1662.95
425.01	1697.77
425.22	1601.51
425.43	1767.40
425.64	1759.21
425.85	1771.49
426.06	1748.97
426.28	1742.82
426.49	1638.38
426.70	1665.00
426.91	1720.29
427.12	1771.49
427.33	1660.90
427.54	1679.33
427.75	1712.10
427.96	1720.29
428.17	1716.20
428.38	1728.49
428.59	1728.49
428.80	1689.57
429.01	1708.01
429.23	1730.53
429.44	1689.57
429.65	1734.63
429.86	1634.28
430.07	1687.53
430.28	1671.14
430.49	1746.92
430.70	1714.15
430.91	1853.41
431.12	1667.05
431.33	1710.05
431.54	1765.35
431.75	1687.53
431.96	1695.72
432.17	1794.02
432.38	1787.88
432.59	1822.69
432.80	1863.65
433.01	1703.91
433.22	1626.09
433.43	1691.62
433.64	1800.16
433.85	1785.83
434.06	1773.54
434.27	1671.14
434.49	1679.33
434.70	1791.97
434.91	1693.67
435.12	1716.20
435.33	1744.87
435.54	1654.76
435.75	1578.98
435.96	1617.90
436.17	1695.72
436.38	1765.35
436.59	1722.34
436.80	1589.22
437.01	1761.25
437.22	1789.92
437.43	1626.09
437.64	1654.76
437.85	1705.96
438.06	1773.54
438.27	1646.57
438.48	1724.39
438.69	1718.25
438.90	1679.33
439.11	1738.73
439.32	1740.77
439.53	1574.89
439.74	1650.66
439.95	1607.66
440.16	1601.51
440.37	1712.10
440.57	1683.43
440.78	1730.53
440.99	1712.10
441.20	1710.05
441.41	1648.61
441.62	1619.94
441.83	1652.71
442.04	1611.75
442.25	1671.14
442.46	1628.14
442.67	1646.57
442.88	1816.55
443.09	1691.62
443.30	1691.62
443.51	1679.33
443.72	1718.25
443.93	1656.81
444.14	1775.59
444.35	1695.72
444.56	1660.90
444.77	1626.09
444.98	1736.68
445.19	1763.30
445.40	1656.81
445.61	1515.50
445.81	1642.47
446.02	1777.64
446.23	1740.77
446.44	1642.47
446.65	1771.49
446.86	1837.03
447.07	1875.94
447.28	1699.81
447.49	1757.16
447.70	1683.43
447.91	1785.83
448.12	1703.91
448.33	1710.05
448.54	1662.95
448.74	1722.34
448.95	1763.30
449.16	1822.69
449.37	1699.81
449.58	1740.77
449.79	1794.02
450.00	1740.77
450.21	1718.25
450.42	1673.19
450.63	1699.81
450.84	1624.04
451.05	1665.00
451.25	1652.71
451.46	1601.51
451.67	1779.68
451.88	1753.06
452.09	1765.35
452.30	1650.66
452.51	1621.99
452.72	1767.40
452.93	1849.32
453.13	1626.09
453.34	1699.81
453.55	1712.10
453.76	1650.66
453.97	1673.19
454.18	1607.66
454.39	1787.88
454.60	1703.91
454.81	1656.81
455.01	1765.35
455.22	1624.04
455.43	1638.38
455.64	1665.00
455.85	1720.29
456.06	1763.30
456.27	1826.79
456.48	1726.44
456.68	1732.58
456.89	1728.49
457.10	1703.91
457.31	1708.01
457.52	1736.68
457.73	1687.53
457.94	1759.21
458.14	1609.70
458.35	1689.57
458.56	1685.48
458.77	1638.38
458.98	1673.19
459.19	1767.40
459.39	1730.53
459.60	1658.85
459.81	1687.53
460.02	1710.05
460.23	1701.86
460.44	1656.81
460.65	1593.32
460.85	1705.96
461.06	1658.85
461.27	1683.43
461.48	1630.18
461.69	1724.39
461.89	1581.03
462.10	1669.09
462.31	1654.76
462.52	1609.70
462.73	1658.85
462.94	1689.57
463.14	1728.49
463.35	1748.97
463.56	1847.27
463.77	1748.97
463.98	1593.32
464.18	1656.81
464.39	1732.58
464.60	1781.73
464.81	1650.66
465.02	1789.92
465.23	1689.57
465.43	1748.97
465.64	1628.14
465.85	1621.99
466.06	1673.19
466.27	1732.58
466.47	1685.48
466.68	1779.68
466.89	1572.84
467.10	1634.28
467.30	1667.05
467.51	1710.05
467.72	1826.79
467.93	1585.13
468.14	1677.29
468.34	1708.01
468.55	1697.77
468.76	1763.30
468.97	1724.39
469.17	1716.20
469.38	1837.03
469.59	1708.01
469.80	1695.72
470.01	1644.52
470.21	1662.95
470.42	1624.04
470.63	1705.96
470.84	1744.87
471.04	1646.57
471.25	1814.50
471.46	1687.53
471.67	1773.54
471.87	1679.33
472.08	1765.35
472.29	1654.76
472.50	1730.53
472.70	1722.34
472.91	1566.70
473.12	1697.77
473.33	1697.77
473.53	1779.68
473.74	1683.43
473.95	1744.87
474.16	1667.05
474.36	1689.57
474.57	1755.11
474.78	1669.09
474.99	1804.26
475.19	1689.57
475.40	1677.29
475.61	1705.96
475.81	1693.67
476.02	1665.00
476.23	1732.58
476.44	1574.89
476.64	1710.05
476.85	1691.62
477.06	1673.19
477.27	1648.61
477.47	1730.53
477.68	1683.43
477.89	1712.10
478.09	1703.91
478.30	1701.86
478.51	1728.49
478.71	1732.58
478.92	1806.31
479.13	1712.10
479.34	1644.52
479.54	1687.53
479.75	1662.95
479.96	1755.11
480.16	1720.29
480.37	1681.38
480.58	1677.29
480.78	1779.68
480.99	1650.66
481.20	1708.01
481.41	1673.19
481.61	1632.23
481.82	1736.68
482.03	1613.80
482.23	1654.76
482.44	1814.50
482.65	1814.50
482.85	1724.39
483.06	1667.05
483.27	1767.40
483.47	1628.14
483.68	1689.57
483.89	1695.72
484.09	1693.67
484.30	1697.77
484.51	1837.03
484.71	1669.09
484.92	1587.18
485.13	1699.81
485.33	1665.00
485.54	1654.76
485.75	1783.78
485.95	1777.64
486.16	1679.33
486.37	1681.38
486.57	1654.76
486.78	1648.61
486.98	1712.10
487.19	1626.09
487.40	1718.25
487.60	1671.14
487.81	1683.43
488.02	1621.99
488.22	1714.15
488.43	1816.55
488.64	1679.33
488.84	1597.42
489.05	1787.88
489.25	1697.77
489.46	1714.15
489.67	1695.72
489.87	1828.84
490.08	1763.30
490.29	1648.61
490.49	1808.36
490.70	1740.77
490.90	1665.00
491.11	1632.23
491.32	1734.63
491.52	1624.04
491.73	1677.29
491.94	1691.62
492.14	1658.85
492.35	1642.47
492.55	1771.49
492.76	1681.38
492.97	1589.22
493.17	1755.11
493.38	1771.49
493.58	1787.88
493.79	1675.24
494.00	1720.29
494.20	1638.38
494.41	1763.30
494.61	1687.53
494.82	1656.81
495.02	1599.46
495.23	1703.91
495.44	1667.05
495.64	1669.09
495.85	1691.62
496.05	1732.58
496.26	1724.39
496.47	1665.00
496.67	1613.80
496.88	1656.81
497.08	1669.09
497.29	1638.38
497.49	1736.68
497.70	1640.42
497.91	1634.28
498.11	1796.07
498.32	1744.87
498.52	1708.01
498.73	1738.73
498.93	1701.86
499.14	1818.60
499.34	1755.11
499.55	1740.77
499.76	1658.85
499.96	1742.82
500.17	1748.97
500.37	1753.06
500.58	1720.29
500.78	1624.04
500.99	1583.08
501.19	1646.57
501.40	1789.92
501.60	1634.28
501.81	1675.24
502.02	1734.63
502.22	1630.18
502.43	1783.78
502.63	1816.55
502.84	1773.54
503.04	1708.01
503.25	1781.73
503.45	1767.40
503.66	1619.94
503.86	1789.92
504.07	1763.30
504.27	1630.18
504.48	1619.94
504.68	1730.53
504.89	1814.50
505.09	1634.28
505.30	1660.90
505.50	1728.49
505.71	1691.62
505.91	1771.49
506.12	1634.28
506.32	1738.73
506.53	1667.05
506.73	1642.47
506.94	1648.61
507.14	1714.15
507.35	1767.40
507.55	1673.19
507.76	1652.71
507.96	1648.61
508.17	1714.15
508.37	1593.32
508.58	1796.07
508.78	1730.53
508.99	1773.54
509.19	1705.96
509.40	1701.86
509.60	1667.05
509.81	1777.64
510.01	1581.03
510.22	1675.24
510.42	1812.45
510.63	1677.29
510.83	1767.40
511.04	1718.25
511.24	1820.64
511.44	1671.14
511.65	1708.01
511.85	1765.35
512.06	1767.40
512.26	1642.47
512.47	1742.82
512.67	1716.20
512.88	1722.34
513.08	1589.22
513.29	1681.38
513.49	1689.57
513.69	1714.15
513.90	1665.00
514.10	1773.54
514.31	1720.29
514.51	1638.38
514.72	1779.68
514.92	1742.82
515.13	1662.95
515.33	1646.57
515.53	1601.51
515.74	1767.40
515.94	1732.58
516.15	1834.98
516.35	1636.33
516.56	1669.09
516.76	1648.61
516.96	1671.14
517.17	1714.15
517.37	1728.49
517.58	1619.94
517.78	1683.43
517.99	1763.30
518.19	1800.16
518.39	1740.77
518.60	1761.25
518.80	1716.20
519.01	1708.01
519.21	1605.61
519.41	1738.73
519.62	1585.13
519.82	1665.00
520.03	1695.72
520.23	1562.60
520.43	1581.03
520.64	1812.45
520.84	1789.92
521.05	1617.90
521.25	1708.01
521.45	1757.16
521.66	1677.29
521.86	1687.53
522.07	1642.47
522.27	1712.10
522.47	1644.52
522.68	1740.77
522.88	1640.42
523.08	1757.16
523.29	1652.71
523.49	1599.46
523.70	1667.05
523.90	1687.53
524.10	1757.16
524.31	1646.57
524.51	1501.16
524.71	1771.49
524.92	1673.19
525.12	1566.70
525.33	1794.02
525.53	1679.33
525.73	1740.77
525.94	1650.66
526.14	1654.76
526.34	1644.52
526.55	1679.33
526.75	1722.34
526.95	1867.75
527.16	1656.81
527.36	1646.57
527.56	1656.81
527.77	1630.18
527.97	1744.87
528.17	1732.58
528.38	1695.72
528.58	1787.88
528.78	1697.77
528.99	1662.95
529.19	1732.58
529.39	1601.51
529.60	1634.28
529.80	1685.48
530.00	1593.32
530.21	1732.58
530.41	1630.18
530.61	1765.35
530.82	1714.15
531.02	1660.90
531.22	1751.01
531.43	1685.48
531.63	1689.57
531.83	1708.01
532.04	1726.44
532.24	1687.53
532.44	1644.52
532.64	1769.44
532.85	1624.04
533.05	1722.34
533.25	1712.10
533.46	1708.01
533.66	1667.05
533.86	1708.01
534.07	1746.92
534.27	1669.09
534.47	1744.87
534.67	1765.35
534.88	1626.09
535.08	1781.73
535.28	1751.01
535.49	1607.66
535.69	1744.87
535.89	1779.68
536.09	1712.10
536.30	1687.53
536.50	1634.28
536.70	1669.09
536.91	1685.48
537.11	1759.21
537.31	1738.73
537.51	1691.62
537.72	1763.30
537.92	1685.48
538.12	1757.16
538.32	1771.49
538.53	1730.53
538.73	1673.19
538.93	1652.71
539.13	1626.09
539.34	1718.25
539.54	1630.18
539.74	1732.58
539.94	1693.67
540.15	1787.88
540.35	1712.10
540.55	1658.85
540.75	1634.28
540.96	1720.29
541.16	1675.24
541.36	1705.96
541.56	1720.29
541.77	1724.39
541.97	1699.81
542.17	1697.77
542.37	1814.50
542.58	1726.44
542.78	1728.49
542.98	1671.14
543.18	1654.76
543.38	1714.15
543.59	1689.57
543.79	1689.57
543.99	1619.94
544.19	1652.71
544.40	1830.88
544.60	1665.00
544.80	1728.49
545.00	1609.70
545.20	1736.68
545.41	1675.24
545.61	1654.76
545.81	1685.48
546.01	1675.24
546.21	1705.96
546.42	1730.53
546.62	1787.88
546.82	1658.85
547.02	1595.37
547.22	1642.47
547.43	1812.45
547.63	1656.81
547.83	1724.39
548.03	1687.53
548.23	1748.97
548.44	1658.85
548.64	1695.72
548.84	1708.01
549.04	1658.85
549.24	1769.44
549.45	1923.04
549.65	1671.14
549.85	1742.82
550.05	1712.10
550.25	1640.42
550.45	1734.63
550.66	1775.59
550.86	1648.61
551.06	1730.53
551.26	1634.28
551.46	1699.81
551.66	1689.57
551.87	1724.39
552.07	1720.29
552.27	1675.24
552.47	1740.77
552.67	1701.86
552.87	1662.95
553.07	1720.29
553.28	1703.91
553.48	1619.94
553.68	1656.81
553.88	1742.82
554.08	1699.81
554.28	1581.03
554.48	1605.61
554.69	1632.23
554.89	1636.33
555.09	1605.61
555.29	1667.05
555.49	1611.75
555.69	1630.18
555.89	1710.05
556.10	1718.25
556.30	1619.94
556.50	1712.10
556.70	1695.72
556.90	1728.49
557.10	1822.69
557.30	1757.16
557.50	1634.28
557.70	1658.85
557.91	1689.57
558.11	1626.09
558.31	1867.75
558.51	1730.53
558.71	1773.54
558.91	1712.10
559.11	1662.95
559.31	1578.98
559.51	1687.53
559.72	1697.77
559.92	1689.57
560.12	1585.13
560.32	1753.06
560.52	1746.92
560.72	1662.95
560.92	1718.25
561.12	1730.53
561.32	1724.39
561.52	1634.28
561.72	1892.32
561.93	1765.35
562.13	1681.38
562.33	1660.90
562.53	1710.05
562.73	1648.61
562.93	1726.44
563.13	1726.44
563.33	1798.12
563.53	1773.54
563.73	1726.44
563.93	1771.49
564.13	1724.39
564.33	1632.23
564.53	1681.38
564.74	1716.20
564.94	1708.01
565.14	1720.29
565.34	1693.67
565.54	1712.10
565.74	1679.33
565.94	1722.34
566.14	1722.34
566.34	1722.34
566.54	1748.97
566.74	1695.72
566.94	1708.01
567.14	1716.20
567.34	1722.34
567.54	1671.14
567.74	1632.23
567.94	1683.43
568.14	1636.33
568.34	1843.17
568.54	1736.68
568.74	1720.29
568.94	1705.96
569.14	1806.31
569.34	1679.33
569.54	1646.57
569.75	1716.20
569.95	1667.05
570.15	1748.97
570.35	1687.53
570.55	1640.42
570.75	1751.01
570.95	1716.20
571.15	1753.06
571.35	1757.16
571.55	1703.91
571.75	1697.77
571.95	1732.58
572.15	1624.04
572.35	1724.39
572.55	1736.68
572.75	1650.66
572.95	1648.61
573.15	1652.71
573.35	1705.96
573.55	1650.66
573.75	1671.14
573.95	1839.08
574.15	1755.11
574.35	1667.05
574.55	1648.61
574.75	1644.52
574.95	1697.77
575.15	1703.91
575.34	1716.20
575.54	1681.38
575.74	1705.96
575.94	1701.86
576.14	1658.85
576.34	1658.85
576.54	1660.90
576.74	1751.01
576.94	1693.67
577.14	1703.91
577.34	1703.91
577.54	1691.62
577.74	1673.19
577.94	1705.96
578.14	1607.66
578.34	1718.25
578.54	1665.00
578.74	1656.81
578.94	1710.05
579.14	1736.68
579.34	1619.94
579.54	1695.72
579.74	1751.01
579.94	1667.05
580.13	1705.96
580.33	1753.06
580.53	1638.38
580.73	1556.46
580.93	1722.34
581.13	1652.71
581.33	1712.10
581.53	1710.05
581.73	1675.24
581.93	1624.04
582.13	1716.20
582.33	1730.53
582.53	1665.00
582.73	1716.20
582.92	1656.81
583.12	1744.87
583.32	1673.19
583.52	1765.35
583.72	1767.40
583.92	1759.21
584.12	1746.92
584.32	1703.91
584.52	1615.85
584.72	1685.48
584.92	1724.39
585.11	1744.87
585.31	1771.49
585.51	1724.39
585.71	1703.91
585.91	1783.78
586.11	1759.21
586.31	1798.12
586.51	1685.48
586.71	1644.52
586.91	1654.76
587.10	1808.36
587.30	1765.35
587.50	1681.38
587.70	1632.23
587.90	1667.05
588.10	1636.33
588.30	1667.05
588.50	1640.42
588.69	1609.70
588.89	1689.57
589.09	1693.67
589.29	1611.75
589.49	1673.19
589.69	1605.61
589.89	1718.25
590.08	1671.14
590.28	1673.19
590.48	1691.62
590.68	1699.81
590.88	1654.76
591.08	1708.01
591.28	1693.67
591.47	1687.53
591.67	1595.37
591.87	1703.91
592.07	1843.17
592.27	1640.42
592.47	1628.14
592.67	1777.64
592.86	1693.67
593.06	1755.11
593.26	1773.54
593.46	1759.21
593.66	1560.55
593.86	1789.92
594.05	1783.78
594.25	1734.63
594.45	1656.81
594.65	1812.45
594.85	1701.86
595.05	1662.95
595.24	1701.86
595.44	1720.29
595.64	1617.90
595.84	1703.91
596.04	1701.86
596.23	1681.38
596.43	1720.29
596.63	1708.01
596.83	1687.53
597.03	1789.92
597.22	1699.81
597.42	1814.50
597.62	1716.20
597.82	1753.06
598.02	1757.16
598.21	1753.06
598.41	1599.46
598.61	1708.01
598.81	1669.09
599.01	1757.16
599.20	1675.24
599.40	1654.76
599.60	1665.00
599.80	1671.14
600.00	1816.55
600.19	1732.58
600.39	1642.47
600.59	1687.53
600.79	1775.59
600.98	1755.11
601.18	1759.21
601.38	1777.64
601.58	1654.76
601.78	1759.21
601.97	1734.63
602.17	1781.73
602.37	1646.57
602.57	1851.36
602.76	1718.25
602.96	1673.19
603.16	1662.95
603.36	1673.19
603.55	1738.73
603.75	1660.90
603.95	1697.77
604.15	1701.86
604.34	1687.53
604.54	1669.09
604.74	1791.97
604.94	1734.63
605.13	1687.53
605.33	1701.86
605.53	1621.99
605.73	1726.44
605.92	1728.49
606.12	1667.05
606.32	1763.30
606.52	1791.97
606.71	1773.54
606.91	1660.90
607.11	1665.00
607.30	1718.25
607.50	1748.97
607.70	1781.73
607.90	1699.81
608.09	1583.08
608.29	1708.01
608.49	1798.12
608.68	1609.70
608.88	1634.28
609.08	1708.01
609.28	1732.58
609.47	1708.01
609.67	1705.96
609.87	1683.43
610.06	1718.25
610.26	1660.90
610.46	1781.73
610.66	1667.05
610.85	1708.01
611.05	1810.40
611.25	1751.01
611.44	1691.62
611.64	1656.81
611.84	1730.53
612.03	1742.82
612.23	1689.57
612.43	1746.92
612.62	1802.21
612.82	1716.20
613.02	1683.43
613.21	1728.49
613.41	1845.22
613.61	1675.24
613.80	1671.14
614.00	1669.09
614.20	1828.84
614.39	1757.16
614.59	1781.73
614.79	1626.09
614.98	1771.49
615.18	1732.58
615.38	1746.92
615.57	1675.24
615.77	1845.22
615.97	1748.97
616.16	1658.85
616.36	1681.38
616.56	1632.23
616.75	1687.53
616.95	1695.72
617.15	1834.98
617.34	1644.52
617.54	1787.88
617.74	1808.36
617.93	1808.36
618.13	1740.77
618.32	1718.25
618.52	1671.14
618.72	1681.38
618.91	1816.55
619.11	1740.77
619.31	1669.09
619.50	1705.96
619.70	1640.42
619.90	1673.19
620.09	1728.49
620.29	1732.58
620.48	1734.63
620.68	1759.21
620.88	1763.30
621.07	1765.35
621.27	1724.39
621.46	1716.20
621.66	1703.91
621.86	1818.60
622.05	1662.95
622.25	1865.70
622.44	1705.96
622.64	1740.77
622.84	1673.19
623.03	1611.75
623.23	1673.19
623.42	1761.25
623.62	1656.81
623.82	1785.83
624.01	1765.35
624.21	1667.05
624.40	1796.07
624.60	1681.38
624.80	1679.33
624.99	1654.76
625.19	1787.88
625.38	1816.55
625.58	1765.35
625.77	1695.72
625.97	1767.40
626.17	1671.14
626.36	1787.88
626.56	1699.81
626.75	1695.72
626.95	1757.16
627.14	1785.83
627.34	1708.01
627.54	1757.16
627.73	1853.41
627.93	1697.77
628.12	1722.34
628.32	1830.88
628.51	1732.58
628.71	1849.32
628.90	1763.30
629.10	1720.29
629.30	1718.25
629.49	1814.50
629.69	1669.09
629.88	1701.86
630.08	1847.27
630.27	1888.23
630.47	1763.30
630.66	1691.62
630.86	1746.92
631.05	1656.81
631.25	1691.62
631.44	1882.08
631.64	1656.81
631.84	1716.20
632.03	1837.03
632.23	1630.18
632.42	1720.29
632.62	1697.77
632.81	1656.81
633.01	1689.57
633.20	1843.17
633.40	1849.32
633.59	1701.86
633.79	1677.29
633.98	1667.05
634.18	1748.97
634.37	1757.16
634.57	1689.57
634.76	1667.05
634.96	1839.08
635.15	1861.60
635.35	1738.73
635.54	1773.54
635.74	1699.81
635.93	1617.90
636.13	1757.16
636.32	1742.82
636.52	1755.11
636.71	1701.86
636.91	1724.39
637.10	1781.73
637.30	1660.90
637.49	1773.54
637.69	1740.77
637.88	1724.39
638.08	1685.48
638.27	1761.25
638.46	1777.64
638.66	1648.61
638.85	1736.68
639.05	1701.86
639.24	1845.22
639.44	1697.77
639.63	1748.97
639.83	1779.68
640.02	1669.09
640.22	1732.58
640.41	1646.57
640.61	1765.35
640.80	1738.73
640.99	1726.44
641.19	1818.60
641.38	1814.50
641.58	1710.05
641.77	1769.44
641.97	1673.19
642.16	1691.62
642.36	1806.31
642.55	1671.14
642.74	1728.49
642.94	1777.64
643.13	1654.76
643.33	1779.68
643.52	1710.05
643.72	1675.24
643.91	1630.18
644.10	1800.16
644.30	1683.43
644.49	1722.34
644.69	1804.26
644.88	1732.58
645.08	1785.83
645.27	1753.06
645.46	1701.86
645.66	1681.38
645.85	1703.91
646.05	1753.06
646.24	1671.14
646.43	1605.61
646.63	1720.29
646.82	1607.66
647.02	1777.64
647.21	1912.80
647.40	1753.06
647.60	1583.08
647.79	1773.54
647.99	1722.34
648.18	1712.10
648.37	1777.64
648.57	1763.30
648.76	1740.77
648.96	1695.72
649.15	1683.43
649.34	1796.07
649.54	1753.06
649.73	1716.20
649.92	1667.05
650.12	1746.92
650.31	1693.67
650.51	1890.28
650.70	1658.85
650.89	1742.82
651.09	1814.50
651.28	1703.91
651.47	1710.05
651.67	1783.78
651.86	1812.45
652.06	1699.81
652.25	1691.62
652.44	1642.47
652.64	1728.49
652.83	1753.06
653.02	1699.81
653.22	1734.63
653.41	1662.95
653.60	1662.95
653.80	1626.09
653.99	1755.11
654.18	1658.85
654.38	1617.90
654.57	1726.44
654.76	1695.72
654.96	1744.87
655.15	1617.90
655.34	1751.01
655.54	1648.61
655.73	1673.19
655.92	1744.87
656.12	1703.91
656.31	1771.49
656.50	1839.08
656.70	1683.43
656.89	1689.57
657.08	1699.81
657.28	1802.21
657.47	1710.05
657.66	1705.96
657.86	1767.40
658.05	1759.21
658.24	1710.05
658.43	1796.07
658.63	1583.08
658.82	1734.63
659.01	1765.35
659.21	1765.35
659.40	1650.66
659.59	1755.11
659.79	1720.29
659.98	1822.69
660.17	1810.40
660.36	1765.35
660.56	1755.11
660.75	1695.72
660.94	1732.58
661.14	1683.43
661.33	1710.05
661.52	1732.58
661.71	1753.06
661.91	1728.49
662.10	1693.67
662.29	1724.39
662.49	1705.96
662.68	1652.71
662.87	1652.71
663.06	1783.78
663.26	1660.90
663.45	1880.04
663.64	1730.53
663.83	1738.73
664.03	1798.12
664.22	1830.88
664.41	1824.74
664.60	1767.40
664.80	1648.61
664.99	1839.08
665.18	1837.03
665.37	1708.01
665.57	1798.12
665.76	1732.58
665.95	1693.67
666.14	1650.66
666.34	1708.01
666.53	1755.11
666.72	1669.09
666.91	1730.53
667.11	1714.15
667.30	1847.27
667.49	1658.85
667.68	1730.53
667.87	1714.15
668.07	1787.88
668.26	1615.85
668.45	1712.10
668.64	1681.38
668.84	1761.25
669.03	1679.33
669.22	1828.84
669.41	1744.87
669.60	1621.99
669.80	1814.50
669.99	1734.63
670.18	1644.52
670.37	1837.03
670.57	1746.92
670.76	1751.01
670.95	1767.40
671.14	1759.21
671.33	1691.62
671.53	1716.20
671.72	1845.22
671.91	1761.25
672.10	1695.72
672.29	1798.12
672.48	1728.49
672.68	1630.18
672.87	1693.67
673.06	1753.06
673.25	1693.67
673.44	1679.33
673.64	1705.96
673.83	1708.01
674.02	1710.05
674.21	1779.68
674.40	1810.40
674.59	1687.53
674.79	1712.10
674.98	1777.64
675.17	1736.68
675.36	1609.70
675.55	1624.04
675.74	1677.29
675.94	1839.08
676.13	1794.02
676.32	1705.96
676.51	1761.25
676.70	1617.90
676.89	1714.15
677.08	1732.58
677.28	1855.46
677.47	1695.72
677.66	1789.92
677.85	1701.86
678.04	1759.21
678.23	1746.92
678.42	1679.33
678.62	1640.42
678.81	1734.63
679.00	1724.39
679.19	1728.49
679.38	1716.20
679.57	1581.03
679.76	1726.44
679.96	1710.05
680.15	1732.58
680.34	1791.97
680.53	1738.73
680.72	1769.44
680.91	1646.57
681.10	1712.10
681.29	1705.96
681.48	1759.21
681.68	1734.63
681.87	1787.88
682.06	1783.78
682.25	1740.77
682.44	1628.14
682.63	1820.64
682.82	1617.90
683.01	1769.44
683.20	1689.57
683.39	1816.55
683.59	1728.49
683.78	1687.53
683.97	1708.01
684.16	1624.04
684.35	1648.61
684.54	1763.30
684.73	1667.05
684.92	1687.53
685.11	1769.44
685.30	1693.67
685.49	1744.87
685.69	1806.31
685.88	1656.81
686.07	1617.90
686.26	1708.01
686.45	1699.81
686.64	1787.88
686.83	1746.92
687.02	1671.14
687.21	1828.84
687.40	1697.77
687.59	1847.27
687.78	1753.06
687.97	1812.45
688.16	1734.63
688.35	1724.39
688.54	1718.25
688.74	1554.41
688.93	1687.53
689.12	1703.91
689.31	1869.80
689.50	1808.36
689.69	1712.10
689.88	1761.25
690.07	1693.67
690.26	1716.20
690.45	1689.57
690.64	1656.81
690.83	1724.39
691.02	1699.81
691.21	1744.87
691.40	1689.57
691.59	1742.82
691.78	1851.36
691.97	1722.34
692.16	1695.72
692.35	1769.44
692.54	1789.92
692.73	1789.92
692.92	1796.07
693.11	1763.30
693.30	1771.49
693.49	1708.01
693.68	1843.17
693.87	1724.39
694.06	1716.20
694.25	1673.19
694.44	1671.14
694.63	1708.01
694.82	1665.00
695.01	1673.19
695.20	1783.78
695.39	1722.34
695.58	1712.10
695.77	1728.49
695.96	1730.53
696.15	1705.96
696.34	1665.00
696.53	1748.97
696.72	1671.14
696.91	1642.47
697.10	1636.33
697.29	1708.01
697.48	1871.84
697.67	1812.45
697.86	1693.67
698.05	1701.86
698.24	1695.72
698.43	1710.05
698.62	1753.06
698.81	1716.20
699.00	1763.30
699.19	1736.68
699.38	1732.58
699.57	1636.33
699.76	1724.39
699.95	1681.38
700.14	1728.49
700.32	1765.35
700.51	1736.68
700.70	1669.09
700.89	1787.88
701.08	1779.68
701.27	1671.14
701.46	1896.42
701.65	1783.78
701.84	1662.95
702.03	1572.84
702.22	1798.12
702.41	1763.30
702.60	1703.91
702.79	1732.58
702.98	1687.53
703.17	1779.68
703.35	1720.29
703.54	1769.44
703.73	1761.25
703.92	1814.50
704.11	1656.81
704.30	1705.96
704.49	1765.35
704.68	1693.67
704.87	1710.05
705.06	1847.27
705.25	1628.14
705.43	1759.21
705.62	1650.66
705.81	1832.93
706.00	1736.68
706.19	1716.20
706.38	1689.57
706.57	1798.12
706.76	1673.19
706.95	1710.05
707.14	1765.35
707.32	1634.28
707.51	1685.48
707.70	1656.81
707.89	1718.25
708.08	1748.97
708.27	1716.20
708.46	1785.83
708.65	1621.99
708.84	1810.40
709.02	1712.10
709.21	1624.04
709.40	1705.96
709.59	1802.21
709.78	1646.57
709.97	1732.58
710.16	1759.21
710.34	1732.58
710.53	1755.11
710.72	1615.85
710.91	1767.40
711.10	1654.76
711.29	1691.62
711.48	1794.02
711.66	1667.05
711.85	1742.82
712.04	1785.83
712.23	1611.75
712.42	1748.97
712.61	1763.30
712.80	1654.76
712.98	1802.21
713.17	1701.86
713.36	1675.24
713.55	1818.60
713.74	1740.77
713.93	1751.01
714.11	1751.01
714.30	1525.74
714.49	1734.63
714.68	1716.20
714.87	1640.42
715.06	1767.40
715.24	1814.50
715.43	1810.40
715.62	1636.33
715.81	1708.01
716.00	1689.57
716.18	1665.00
716.37	1744.87
716.56	1726.44
716.75	1714.15
716.94	1722.34
717.12	1703.91
717.31	1738.73
717.50	1724.39
717.69	1710.05
717.88	1773.54
718.06	1763.30
718.25	1683.43
718.44	1644.52
718.63	1759.21
718.82	1701.86
719.00	1755.11
719.19	1861.60
719.38	1630.18
719.57	1714.15
719.76	1683.43
719.94	1748.97
720.13	1724.39
720.32	1857.51
720.51	1646.57
720.69	1769.44
720.88	1748.97
721.07	1703.91
721.26	1675.24
721.44	1779.68
721.63	1677.29
721.82	1748.97
722.01	1828.84
722.20	1658.85
722.38	1728.49
722.57	1638.38
722.76	1705.96
722.95	1615.85
723.13	1716.20
723.32	1728.49
723.51	1724.39
723.70	1720.29
723.88	1757.16
724.07	1624.04
724.26	1777.64
724.44	1740.77
724.63	1802.21
724.82	1748.97
725.01	1703.91
725.19	1724.39
725.38	1769.44
725.57	1697.77
725.76	1773.54
725.94	1656.81
726.13	1693.67
726.32	1691.62
726.51	1695.72
726.69	1605.61
726.88	1705.96
727.07	1705.96
727.25	1716.20
727.44	1689.57
727.63	1613.80
727.82	1597.42
728.00	1712.10
728.19	1642.47
728.38	1740.77
728.56	1630.18
728.75	1755.11
728.94	1695.72
729.12	1662.95
729.31	1662.95
729.50	1662.95
729.69	1775.59
729.87	1646.57
730.06	1777.64
730.25	1748.97
730.43	1740.77
730.62	1636.33
730.81	1732.58
730.99	1708.01
731.18	1771.49
731.37	1681.38
731.55	1675.24
731.74	1736.68
731.93	1710.05
732.11	1718.25
732.30	1705.96
732.49	1751.01
732.67	1691.62
732.86	1576.94
733.05	1630.18
733.23	1769.44
733.42	1705.96
733.61	1654.76
733.79	1703.91
733.98	1761.25
734.17	1609.70
734.35	1699.81
734.54	1773.54
734.73	1837.03
734.91	1599.46
735.10	1714.15
735.29	1732.58
735.47	1658.85
735.66	1679.33
735.84	1724.39
736.03	1699.81
736.22	1689.57
736.40	1730.53
736.59	1595.37
736.78	1712.10
736.96	1718.25
737.15	1818.60
737.33	1710.05
737.52	1701.86
737.71	1761.25
737.89	1693.67
738.08	1714.15
738.27	1802.21
738.45	1730.53
738.64	1748.97
738.82	1634.28
739.01	1679.33
739.20	1683.43
739.38	1693.67
739.57	1679.33
739.75	1765.35
739.94	1736.68
740.13	1642.47
740.31	1738.73
740.50	1736.68
740.68	1714.15
740.87	1660.90
741.06	1732.58
741.24	1736.68
741.43	1636.33
741.61	1634.28
741.80	1705.96
741.99	1781.73
742.17	1748.97
742.36	1638.38
742.54	1687.53
742.73	1810.40
742.91	1689.57
743.10	1697.77
743.29	1728.49
743.47	1759.21
743.66	1607.66
743.84	1662.95
744.03	1724.39
744.21	1658.85
744.40	1699.81
744.59	1650.66
744.77	1658.85
744.96	1689.57
745.14	1695.72
745.33	1699.81
745.51	1789.92
745.70	1654.76
745.88	1658.85
746.07	1710.05
746.26	1695.72
746.44	1605.61
746.63	1562.60
746.81	1746.92
747.00	1759.21
747.18	1691.62
747.37	1697.77
747.55	1705.96
747.74	2035.68
747.92	1751.01
748.11	1744.87
748.29	1671.14
748.48	1705.96
748.66	1695.72
748.85	1699.81
749.03	1744.87
749.22	1683.43
749.41	1648.61
749.59	1656.81
749.78	1673.19
749.96	1611.75
750.15	1740.77
750.33	1728.49
750.52	1624.04
750.70	1771.49
750.89	1687.53
751.07	1695.72
751.26	1697.77
751.44	1673.19
751.63	1728.49
751.81	1654.76
752.00	1626.09
752.18	1773.54
752.37	1736.68
752.55	1642.47
752.74	1644.52
752.92	1669.09
753.10	1746.92
753.29	1646.57
753.47	1726.44
753.66	1638.38
753.84	1689.57
754.03	1607.66
754.21	1703.91
754.40	1771.49
754.58	1744.87
754.77	1753.06
754.95	1689.57
755.14	1722.34
755.32	1705.96
755.51	1609.70
755.69	1669.09
755.88	1654.76
756.06	1748.97
756.24	1683.43
756.43	1728.49
756.61	1716.20
756.80	1581.03
756.98	1687.53
757.17	1761.25
757.35	1722.34
757.54	1708.01
757.72	1654.76
757.90	1726.44
758.09	1740.77
758.27	1644.52
758.46	1740.77
758.64	1720.29
758.83	1705.96
759.01	1695.72
759.19	1699.81
759.38	1716.20
759.56	1683.43
759.75	1671.14
759.93	1759.21
760.12	1685.48
760.30	1699.81
760.48	1632.23
760.67	1673.19
760.85	1708.01
761.04	1638.38
761.22	1726.44
761.40	1626.09
761.59	1718.25
761.77	1609.70
761.96	1652.71
762.14	1675.24
762.32	1755.11
762.51	1671.14
762.69	1660.90
762.88	1722.34
763.06	1617.90
763.24	1640.42
763.43	1712.10
763.61	1730.53
763.80	1693.67
763.98	1726.44
764.16	1591.27
764.35	1548.26
764.53	1679.33
764.72	1662.95
764.90	1681.38
765.08	1703.91
765.27	1699.81
765.45	1642.47
765.63	1679.33
765.82	1695.72
766.00	1572.84
766.18	1693.67
766.37	1687.53
766.55	1724.39
766.74	1611.75
766.92	1630.18
767.10	1691.62
767.29	1724.39
767.47	1671.14
767.65	1691.62
767.84	1787.88
768.02	1773.54
768.20	1673.19
768.39	1685.48
768.57	1667.05
768.75	1677.29
768.94	1740.77
769.12	1529.83
769.30	1738.73
769.49	1832.93
769.67	1693.67
769.85	1769.44
770.04	1624.04
770.22	1601.51
770.40	1718.25
770.59	1626.09
770.77	1822.69
770.95	1767.40
771.14	1734.63
771.32	1695.72
771.50	1660.90
771.69	1683.43
771.87	1630.18
772.05	1634.28
772.24	1601.51
772.42	1665.00
772.60	1736.68
772.78	1781.73
772.97	1609.70
773.15	1695.72
773.33	1705.96
773.52	1583.08
773.70	1685.48
773.88	1740.77
774.07	1632.23
774.25	1671.14
774.43	1748.97
774.61	1648.61
774.80	1691.62
774.98	1701.86
775.16	1648.61
775.34	1673.19
775.53	1724.39
775.71	1705.96
775.89	1673.19
776.08	1662.95
776.26	1605.61
776.44	1738.73
776.62	1683.43
776.81	1642.47
776.99	1777.64
777.17	1650.66
777.35	1675.24
777.54	1734.63
777.72	1691.62
777.90	1697.77
778.08	1642.47
778.27	1628.14
778.45	1589.22
778.63	1701.86
778.81	1728.49
779.00	1716.20
779.18	1734.63
779.36	1855.46
779.54	1685.48
779.73	1638.38
779.91	1652.71
780.09	1648.61
780.27	1656.81
780.46	1677.29
780.64	1558.50
780.82	1720.29
781.00	1691.62
781.19	1681.38
781.37	1644.52
781.55	1699.81
781.73	1658.85
781.91	1617.90
782.10	1701.86
782.28	1781.73
782.46	1667.05
782.64	1732.58
782.82	1654.76
783.01	1654.76
783.19	1769.44
783.37	1658.85
783.55	1738.73
783.74	1705.96
783.92	1720.29
784.10	1765.35
784.28	1712.10
784.46	1624.04
784.64	1673.19
784.83	1683.43
785.01	1791.97
785.19	1816.55
785.37	1699.81
785.55	1703.91
785.74	1783.78
785.92	1626.09
786.10	1785.83
786.28	1771.49
786.46	1734.63
786.64	1607.66
786.83	1679.33
787.01	1769.44
787.19	1789.92
787.37	1794.02
787.55	1630.18
787.74	1636.33
787.92	1708.01
788.10	1738.73
788.28	1648.61
788.46	1699.81
788.64	1675.24
788.82	1693.67
789.01	1712.10
789.19	1710.05
789.37	1683.43
789.55	1667.05
789.73	1611.75
789.91	1605.61
790.09	1632.23
790.28	1607.66
790.46	1736.68
790.64	1730.53
790.82	1732.58
791.00	1626.09
791.18	1683.43
791.36	1691.62
791.55	1712.10
791.73	1701.86
791.91	1628.14
792.09	1724.39
792.27	1607.66
792.45	1673.19
792.63	1712.10
792.81	1646.57
793.00	1703.91
793.18	1714.15
793.36	1789.92
793.54	1705.96
793.72	1667.05
793.90	1710.05
794.08	1624.04
794.26	1738.73
794.44	1603.56
794.62	1650.66
794.81	1671.14
794.99	1730.53
795.17	1695.72
795.35	1667.05
795.53	1714.15
795.71	1742.82
795.89	1613.80
796.07	1736.68
796.25	1648.61
796.43	1689.57
796.61	1759.21
796.80	1689.57
796.98	1660.90
797.16	1640.42
797.34	1671.14
797.52	1615.85
797.70	1781.73
797.88	1796.07
798.06	1617.90
798.24	1730.53
798.42	1679.33
798.60	1687.53
798.78	1656.81
798.96	1722.34
799.14	1667.05
799.32	1726.44
799.51	1665.00
799.69	1832.93
799.87	1777.64
800.05	1757.16
800.23	1607.66
800.41	1728.49
800.59	1687.53
800.77	1650.66
800.95	1574.89
801.13	1714.15
801.31	1687.53
801.49	1724.39
801.67	1677.29
801.85	1646.57
802.03	1648.61
802.21	1697.77
802.39	1601.51
802.57	1601.51
802.75	1705.96
802.93	1773.54
803.11	1603.56
803.29	1703.91
803.47	1734.63
803.65	1665.00
803.83	1630.18
804.01	1685.48
804.19	1642.47
804.37	1679.33
804.55	1634.28
804.73	1732.58
804.91	1667.05
805.09	1746.92
805.27	1722.34
805.45	1648.61
805.63	1615.85
805.81	1697.77
805.99	1720.29
806.17	1679.33
806.35	1636.33
806.53	1613.80
806.71	1708.01
806.89	1642.47
807.07	1746.92
807.25	1683.43
807.43	1697.77
807.61	1751.01
807.79	1701.86
807.97	1650.66
808.15	1677.29
808.33	1642.47
808.51	1746.92
808.69	1748.97
808.87	1636.33
809.05	1654.76
809.23	1634.28
809.41	1585.13
809.59	1650.66
809.77	1728.49
809.95	1720.29
810.13	1738.73
810.31	1677.29
810.49	1734.63
810.67	1665.00
810.84	1687.53
811.02	1699.81
811.20	1667.05
811.38	1757.16
811.56	1581.03
811.74	1626.09
811.92	1587.18
812.10	1648.61
812.28	1722.34
812.46	1732.58
812.64	1658.85
812.82	1621.99
813.00	1671.14
813.18	1595.37
813.36	1679.33
813.53	1667.05
813.71	1748.97
813.89	1699.81
814.07	1587.18
814.25	1691.62
814.43	1658.85
814.61	1617.90
814.79	1687.53
814.97	1687.53
815.15	1634.28
815.33	1683.43
815.50	1621.99
815.68	1638.38
815.86	1712.10
816.04	1662.95
816.22	1687.53
816.40	1665.00
816.58	1615.85
816.76	1626.09
816.94	1722.34
817.11	1646.57
817.29	1642.47
817.47	1656.81
817.65	1583.08
817.83	1693.67
818.01	1724.39
818.19	1581.03
818.37	1634.28
818.54	1708.01
818.72	1757.16
818.90	1695.72
819.08	1679.33
819.26	1712.10
819.44	1748.97
819.62	1701.86
819.80	1581.03
819.97	1689.57
820.15	1648.61
820.33	1572.84
820.51	1531.88
820.69	1759.21
820.87	1708.01
821.05	1796.07
821.22	1658.85
821.40	1724.39
821.58	1730.53
821.76	1683.43
821.94	1589.22
822.12	1705.96
822.29	1679.33
822.47	1609.70
822.65	1646.57
822.83	1640.42
823.01	1701.86
823.19	1615.85
823.36	1636.33
823.54	1665.00
823.72	1660.90
823.90	1697.77
824.08	1640.42
824.25	1714.15
824.43	1642.47
824.61	1624.04
824.79	1683.43
824.97	1519.59
825.15	1673.19
825.32	1626.09
825.50	1652.71
825.68	1687.53
825.86	1748.97
826.04	1652.71
826.21	1753.06
826.39	1658.85
826.57	1662.95
826.75	1714.15
826.93	1662.95
827.10	1716.20
827.28	1599.46
827.46	1679.33
827.64	1710.05
827.81	1679.33
827.99	1597.42
828.17	1648.61
828.35	1644.52
828.53	1687.53
828.70	1761.25
828.88	1675.24
829.06	1626.09
829.24	1714.15
829.41	1748.97
829.59	1738.73
829.77	1624.04
829.95	1658.85
830.12	1599.46
830.30	1667.05
830.48	1705.96
830.66	1609.70
830.84	1708.01
831.01	1775.59
831.19	1591.27
831.37	1642.47
831.55	1601.51
831.72	1767.40
831.90	1703.91
832.08	1738.73
832.25	1648.61
832.43	1746.92
832.61	1781.73
832.79	1572.84
832.96	1722.34
833.14	1789.92
833.32	1728.49
833.50	1624.04
833.67	1734.63
833.85	1613.80
834.03	1665.00
834.20	1697.77
834.38	1773.54
834.56	1753.06
834.74	1624.04
834.91	1632.23
835.09	1753.06
835.27	1660.90
835.44	1724.39
835.62	1650.66
835.80	1640.42
835.98	1562.60
836.15	1714.15
836.33	1673.19
836.51	1564.65
836.68	1650.66
836.86	1615.85
837.04	1712.10
837.21	1753.06
837.39	1691.62
837.57	1699.81
837.75	1650.66
837.92	1695.72
838.10	1554.41
838.28	1662.95
838.45	1705.96
838.63	1585.13
838.81	1736.68
838.98	1714.15
839.16	1642.47
839.34	1665.00
839.51	1609.70
839.69	1601.51
839.87	1675.24
840.04	1685.48
840.22	1961.95
840.40	1697.77
840.57	1636.33
840.75	1613.80
840.93	1607.66
841.10	1656.81
841.28	1779.68
841.46	1673.19
841.63	1736.68
841.81	1634.28
841.98	1593.32
842.16	1789.92
842.34	1658.85
842.51	1540.07
842.69	1677.29
842.87	1697.77
843.04	1675.24
843.22	1607.66
843.40	1705.96
843.57	1564.65
843.75	1652.71
843.92	1681.38
844.10	1687.53
844.28	1648.61
844.45	1705.96
844.63	1648.61
844.81	1724.39
844.98	1673.19
845.16	1673.19
845.33	1730.53
845.51	1603.56
845.69	1689.57
845.86	1732.58
846.04	1574.89
846.21	1632.23
846.39	1583.08
846.57	1607.66
846.74	1593.32
846.92	1705.96
847.09	1658.85
847.27	1662.95
847.45	1675.24
847.62	1720.29
847.80	1658.85
847.97	1626.09
848.15	1607.66
848.32	1718.25
848.50	1673.19
848.68	1679.33
848.85	1626.09
849.03	1505.26
849.20	1640.42
849.38	1660.90
849.56	1595.37
849.73	1560.55
849.91	1617.90
850.08	1714.15
850.26	1570.79
850.43	1699.81
850.61	1681.38
850.78	1566.70
850.96	1665.00
851.14	1531.88
851.31	1794.02
851.49	1675.24
851.66	1757.16
851.84	1558.50
852.01	1628.14
852.19	1621.99
852.36	1656.81
852.54	1748.97
852.71	1615.85
852.89	1699.81
853.07	1658.85
853.24	1619.94
853.42	1624.04
853.59	1630.18
853.77	1667.05
853.94	1609.70
854.12	1724.39
854.29	1574.89
854.47	1583.08
854.64	1712.10
854.82	1718.25
854.99	1701.86
855.17	1656.81
855.34	1599.46
855.52	1624.04
855.69	1802.21
855.87	1652.71
856.04	1611.75
856.22	1726.44
856.39	1552.36
856.57	1650.66
856.74	1630.18
856.92	1744.87
857.09	1656.81
857.27	1656.81
857.44	1722.34
857.62	1693.67
857.79	1617.90
857.97	1781.73
858.14	1609.70
858.32	1716.20
858.49	1681.38
858.67	1662.95
858.84	1628.14
859.02	1693.67
859.19	1675.24
859.37	1583.08
859.54	1574.89
859.72	1650.66
859.89	1634.28
860.06	1570.79
860.24	1624.04
860.41	1724.39
860.59	1615.85
860.76	1724.39
860.94	1560.55
861.11	1638.38
861.29	1673.19
861.46	1621.99
861.64	1687.53
861.81	1763.30
861.98	1603.56
862.16	1593.32
862.33	1566.70
862.51	1583.08
862.68	1667.05
862.86	1617.90
863.03	1591.27
863.21	1613.80
863.38	1581.03
863.55	1714.15
863.73	1744.87
863.90	1712.10
864.08	1597.42
864.25	1671.14
864.43	1703.91
864.60	1701.86
864.77	1609.70
864.95	1679.33
865.12	1626.09
865.30	1834.98
865.47	1636.33
865.64	1708.01
865.82	1581.03
865.99	1757.16
866.17	1638.38
866.34	1732.58
866.51	1548.26
866.69	1705.96
866.86	1763.30
867.04	1662.95
867.21	1636.33
867.38	1685.48
867.56	1619.94
867.73	1644.52
867.91	1654.76
868.08	1628.14
868.25	1695.72
868.43	1603.56
868.60	1769.44
868.78	1585.13
868.95	1689.57
869.12	1683.43
869.30	1630.18
869.47	1642.47
869.64	1679.33
869.82	1615.85
869.99	1609.70
870.16	1630.18
870.34	1712.10
870.51	1732.58
870.69	1578.98
870.86	1705.96
871.03	1710.05
871.21	1677.29
871.38	1732.58
871.55	1687.53
871.73	1632.23
871.90	1650.66
872.07	1697.77
872.25	1552.36
872.42	1593.32
872.59	1548.26
872.77	1621.99
872.94	1624.04
873.11	1581.03
873.29	1757.16
873.46	1689.57
873.63	1689.57
873.81	1607.66
873.98	1613.80
874.15	1611.75
874.33	1634.28
874.50	1695.72
874.67	1716.20
874.85	1554.41
875.02	1654.76
875.19	1660.90
875.37	1695.72
875.54	1556.46
875.71	1701.86
875.88	1677.29
876.06	1679.33
876.23	1667.05
876.40	1581.03
876.58	1687.53
876.75	1720.29
876.92	1636.33
877.10	1675.24
877.27	1660.90
877.44	1673.19
877.61	1712.10
877.79	1751.01
877.96	1667.05
878.13	1724.39
878.31	1658.85
878.48	1726.44
878.65	1712.10
878.82	1595.37
879.00	1679.33
879.17	1634.28
879.34	1621.99
879.51	1515.50
879.69	1677.29
879.86	1701.86
880.03	1689.57
880.21	1636.33
880.38	1646.57
880.55	1740.77
880.72	1683.43
880.90	1589.22
881.07	1634.28
881.24	1667.05
881.41	1675.24
881.59	1624.04
881.76	1658.85
881.93	1789.92
882.10	1679.33
882.28	1703.91
882.45	1634.28
882.62	1642.47
882.79	1740.77
882.96	1613.80
883.14	1675.24
883.31	1640.42
883.48	1642.47
883.65	1632.23
883.83	1638.38
884.00	1583.08
884.17	1689.57
884.34	1681.38
884.51	1769.44
884.69	1658.85
884.86	1662.95
885.03	1644.52
885.20	1583.08
885.38	1712.10
885.55	1619.94
885.72	1703.91
885.89	1597.42
886.06	1642.47
886.24	1560.55
886.41	1605.61
886.58	1753.06
886.75	1740.77
886.92	1662.95
887.10	1675.24
887.27	1634.28
887.44	1691.62
887.61	1761.25
887.78	1699.81
887.95	1705.96
888.13	1609.70
888.30	1617.90
888.47	1646.57
888.64	1634.28
888.81	1609.70
888.99	1566.70
889.16	1669.09
889.33	1603.56
889.50	1681.38
889.67	1675.24
889.84	1646.57
890.01	1667.05
890.19	1757.16
890.36	1644.52
890.53	1626.09
890.70	1619.94
890.87	1761.25
891.04	1617.90
891.22	1765.35
891.39	1601.51
891.56	1630.18
891.73	1601.51
891.90	1714.15
892.07	1525.74
892.24	1658.85
892.42	1654.76
892.59	1628.14
892.76	1753.06
892.93	1513.45
893.10	1652.71
893.27	1699.81
893.44	1619.94
893.61	1671.14
893.79	1730.53
893.96	1621.99
894.13	1650.66
894.30	1624.04
894.47	1673.19
894.64	1714.15
894.81	1621.99
894.98	1673.19
895.15	1695.72
895.33	1648.61
895.50	1587.18
895.67	1570.79
895.84	1673.19
896.01	1738.73
896.18	1624.04
896.35	1693.67
896.52	1599.46
896.69	1656.81
896.86	1607.66
897.04	1746.92
897.21	1716.20
897.38	1572.84
897.55	1732.58
897.72	1665.00
897.89	1613.80
898.06	1605.61
898.23	1601.51
898.40	1667.05
898.57	1667.05
898.74	1640.42
898.91	1654.76
899.08	1677.29
899.26	1691.62
899.43	1783.78
899.60	1576.94
899.77	1669.09
899.94	1601.51
900.11	1640.42
900.28	1621.99
900.45	1662.95
900.62	1613.80
900.79	1636.33
900.96	1660.90
901.13	1609.70
901.30	1583.08
901.47	1605.61
901.64	1652.71
901.81	1699.81
901.98	1624.04
902.15	1681.38
902.32	1632.23
902.49	1658.85
902.66	1736.68
902.83	1681.38
903.01	1626.09
903.18	1595.37
903.35	1617.90
903.52	1621.99
903.69	1705.96
903.86	1679.33
904.03	1601.51
904.20	1718.25
904.37	1722.34
904.54	1570.79
904.71	1589.22
904.88	1683.43
905.05	1677.29
905.22	1646.57
905.39	1603.56
905.56	1574.89
905.73	1550.31
905.90	1656.81
906.07	1556.46
906.24	1716.20
906.41	1564.65
906.58	1654.76
906.75	1529.83
906.92	1548.26
907.09	1640.42
907.26	1673.19
907.43	1574.89
907.60	1681.38
907.77	1671.14
907.93	1636.33
908.10	1630.18
908.27	1726.44
908.44	1597.42
908.61	1658.85
908.78	1644.52
908.95	1734.63
909.12	1646.57
909.29	1581.03
909.46	1546.22
909.63	1728.49
909.80	1601.51
909.97	1677.29
910.14	1607.66
910.31	1591.27
910.48	1689.57
910.65	1611.75
910.82	1689.57
910.99	1710.05
911.16	1634.28
911.33	1615.85
911.50	1642.47
911.66	1595.37
911.83	1720.29
912.00	1611.75
912.17	1554.41
912.34	1570.79
912.51	1671.14
912.68	1607.66
912.85	1636.33
913.02	1847.27
913.19	1533.93
913.36	1660.90
913.53	1753.06
913.70	1660.90
913.86	1693.67
914.03	1638.38
914.20	1677.29
914.37	1595.37
914.54	1572.84
914.71	1720.29
914.88	1732.58
915.05	1591.27
915.22	1613.80
915.39	1781.73
915.55	1574.89
915.72	1671.14
915.89	1583.08
916.06	1574.89
916.23	1613.80
916.40	1738.73
916.57	1581.03
916.74	1626.09
916.91	1646.57
917.07	1630.18
917.24	1595.37
917.41	1667.05
917.58	1630.18
917.75	1619.94
917.92	1560.55
918.09	1595.37
918.26	1705.96
918.42	1689.57
918.59	1746.92
918.76	1574.89
918.93	1572.84
919.10	1583.08
919.27	1568.74
919.44	1730.53
919.60	1669.09
919.77	1677.29
919.94	1646.57
920.11	1609.70
920.28	1720.29
920.45	1583.08
920.61	1544.17
920.78	1722.34
920.95	1681.38
921.12	1667.05
921.29	1628.14
921.46	1535.98
921.62	1675.24
921.79	1708.01
921.96	1695.72
922.13	1732.58
922.30	1673.19
922.47	1634.28
922.63	1648.61
922.80	1726.44
922.97	1609.70
923.14	1581.03
923.31	1617.90
923.47	1656.81
923.64	1763.30
923.81	1605.61
923.98	1703.91
924.15	1615.85
924.32	1650.66
924.48	1679.33
924.65	1730.53
924.82	1581.03
924.99	1656.81
925.15	1595.37
925.32	1808.36
925.49	1660.90
925.66	1630.18
925.83	1595.37
925.99	1607.66
926.16	1652.71
926.33	1691.62
926.50	1599.46
926.67	1630.18
926.83	1568.74
927.00	1693.67
927.17	1599.46
927.34	1558.50
927.50	1724.39
927.67	1779.68
927.84	1738.73
928.01	1660.90
928.17	1693.67
928.34	1638.38
928.51	1675.24
928.68	1632.23
928.84	1642.47
929.01	1605.61
929.18	1617.90
929.35	1632.23
929.51	1591.27
929.68	1630.18
929.85	1576.94
930.02	1683.43
930.18	1640.42
930.35	1691.62
930.52	1603.56
930.69	1687.53
930.85	1699.81
931.02	1562.60
931.19	1679.33
931.36	1636.33
931.52	1662.95
931.69	1581.03
931.86	1624.04
932.02	1644.52
932.19	1638.38
932.36	1677.29
932.53	1689.57
932.69	1669.09
932.86	1738.73
933.03	1648.61
933.19	1535.98
933.36	1644.52
933.53	1642.47
933.70	1583.08
933.86	1726.44
934.03	1757.16
934.20	1626.09
934.36	1748.97
934.53	1630.18
934.70	1599.46
934.86	1628.14
935.03	1591.27
935.20	1615.85
935.36	1716.20
935.53	1540.07
935.70	1591.27
935.86	1634.28
936.03	1603.56
936.20	1527.78
936.36	1583.08
936.53	1644.52
936.70	1599.46
936.86	1781.73
937.03	1673.19
937.20	1593.32
937.36	1677.29
937.53	1550.31
937.70	1576.94
937.86	1576.94
938.03	1640.42
938.20	1777.64
938.36	1593.32
938.53	1673.19
938.70	1583.08
938.86	1591.27
939.03	1642.47
939.20	1589.22
939.36	1677.29
939.53	1687.53
939.70	1837.03
939.86	1638.38
940.03	1660.90
940.19	1558.50
940.36	1679.33
940.53	1611.75
940.69	1646.57
940.86	1687.53
941.03	1587.18
941.19	1601.51
941.36	1640.42
941.52	1673.19
941.69	1630.18
941.86	1601.51
942.02	1726.44
942.19	1675.24
942.35	1613.80
942.52	1632.23
942.69	1648.61
942.85	1554.41
943.02	1599.46
943.18	1658.85
943.35	1658.85
943.52	1624.04
943.68	1652.71
943.85	1691.62
944.01	1638.38
944.18	1642.47
944.35	1671.14
944.51	1626.09
944.68	1581.03
944.84	1628.14
945.01	1546.22
945.17	1660.90
945.34	1705.96
945.51	1703.91
945.67	1671.14
945.84	1634.28
946.00	1490.92
946.17	1611.75
946.33	1544.17
946.50	1693.67
946.67	1660.90
946.83	1509.35
947.00	1675.24
947.16	1617.90
947.33	1624.04
947.49	1576.94
947.66	1589.22
947.82	1671.14
947.99	1566.70
948.16	1669.09
948.32	1593.32
948.49	1634.28
948.65	1677.29
948.82	1638.38
948.98	1621.99
949.15	1556.46
949.31	1697.77
949.48	1660.90
949.64	1550.31
949.81	1607.66
949.97	1589.22
950.14	1658.85
950.30	1505.26
950.47	1638.38
950.63	1634.28
950.80	1732.58
950.96	1609.70
951.13	1603.56
951.30	1646.57
951.46	1665.00
951.63	1667.05
951.79	1665.00
951.96	1701.86
952.12	1611.75
952.29	1689.57
952.45	1589.22
952.62	1658.85
952.78	1650.66
952.94	1699.81
953.11	1665.00
953.27	1462.25
953.44	1728.49
953.60	1654.76
953.77	1720.29
953.93	1662.95
954.10	1718.25
954.26	1632.23
954.43	1607.66
954.59	1726.44
954.76	1687.53
954.92	1626.09
955.09	1712.10
955.25	1658.85
955.42	1597.42
955.58	1675.24
955.75	1626.09
955.91	1607.66
956.07	1648.61
956.24	1744.87
956.40	1654.76
956.57	1640.42
956.73	1595.37
956.90	1665.00
957.06	1574.89
957.23	1626.09
957.39	1642.47
957.56	1626.09
957.72	1482.73
957.88	1548.26
958.05	1724.39
958.21	1744.87
958.38	1644.52
958.54	1615.85
958.71	1746.92
958.87	1617.90
959.03	1634.28
959.20	1669.09
959.36	1552.36
959.53	1640.42
959.69	1581.03
959.85	1710.05
960.02	1507.30
960.18	1609.70
960.35	1656.81
960.51	1699.81
960.68	1589.22
960.84	1611.75
961.00	1630.18
961.17	1566.70
961.33	1617.90
961.50	1634.28
961.66	1681.38
961.82	1568.74
961.99	1732.58
962.15	1624.04
962.31	1634.28
962.48	1644.52
962.64	1646.57
962.81	1613.80
962.97	1529.83
963.13	1677.29
963.30	1609.70
963.46	1654.76
963.62	1519.59
963.79	1607.66
963.95	1644.52
964.12	1585.13
964.28	1642.47
964.44	1564.65
964.61	1658.85
964.77	1667.05
964.93	1804.26
965.10	1583.08
965.26	1583.08
965.42	1636.33
965.59	1593.32
965.75	1628.14
965.92	1589.22
966.08	1734.63
966.24	1652.71
966.41	1589.22
966.57	1648.61
966.73	1751.01
966.90	1665.00
967.06	1681.38
967.22	1570.79
967.39	1634.28
967.55	1607.66
967.71	1675.24
967.88	1656.81
968.04	1611.75
968.20	1603.56
968.37	1660.90
968.53	1630.18
968.69	1624.04
968.85	1601.51
969.02	1593.32
969.18	1654.76
969.34	1650.66
969.51	1728.49
969.67	1712.10
969.83	1572.84
970.00	1669.09
970.16	1638.38
970.32	1677.29
970.48	1769.44
970.65	1640.42
970.81	1587.18
970.97	1681.38
971.14	1515.50
971.30	1681.38
971.46	1679.33
971.63	1613.80
971.79	1734.63
971.95	1660.90
972.11	1636.33
972.28	1605.61
972.44	1685.48
972.60	1587.18
972.76	1671.14
972.93	1613.80
973.09	1708.01
973.25	1685.48
973.42	1603.56
973.58	1665.00
973.74	1574.89
973.90	1685.48
974.07	1570.79
974.23	1624.04
974.39	1683.43
974.55	1599.46
974.72	1611.75
974.88	1538.02
975.04	1640.42
975.20	1695.72
975.37	1677.29
975.53	1585.13
975.69	1630.18
975.85	1609.70
976.01	1636.33
976.18	1581.03
976.34	1615.85
976.50	1757.16
976.66	1673.19
976.83	1619.94
976.99	1583.08
977.15	1626.09
977.31	1531.88
977.47	1685.48
977.64	1632.23
977.80	1589.22
977.96	1583.08
978.12	1691.62
978.29	1609.70
978.45	1605.61
978.61	1601.51
978.77	1630.18
978.93	1591.27
979.10	1716.20
979.26	1646.57
979.42	1599.46
979.58	1597.42
979.74	1673.19
979.91	1599.46
980.07	1513.45
980.23	1642.47
980.39	1617.90
980.55	1624.04
980.71	1624.04
980.88	1542.12
981.04	1521.64
981.20	1574.89
981.36	1626.09
981.52	1581.03
981.68	1540.07
981.85	1654.76
982.01	1665.00
982.17	1519.59
982.33	1597.42
982.49	1677.29
982.65	1550.31
982.82	1716.20
982.98	1576.94
983.14	1595.37
983.30	1646.57
983.46	1683.43
983.62	1648.61
983.79	1630.18
983.95	1603.56
984.11	1519.59
984.27	1658.85
984.43	1615.85
984.59	1654.76
984.75	1681.38
984.91	1624.04
985.08	1710.05
985.24	1564.65
985.40	1519.59
985.56	1599.46
985.72	1689.57
985.88	1640.42
986.04	1658.85
986.20	1572.84
986.37	1613.80
986.53	1544.17
986.69	1658.85
986.85	1658.85
987.01	1658.85
987.17	1716.20
987.33	1624.04
987.49	1533.93
987.65	1691.62
987.82	1597.42
987.98	1503.21
988.14	1662.95
988.30	1648.61
988.46	1624.04
988.62	1542.12
988.78	1642.47
988.94	1669.09
989.10	1636.33
989.26	1558.50
989.42	1593.32
989.59	1581.03
989.75	1535.98
989.91	1636.33
990.07	1562.60
990.23	1581.03
990.39	1705.96
990.55	1656.81
990.71	1605.61
990.87	1607.66
991.03	1603.56
991.19	1593.32
991.35	1550.31
991.51	1660.90
991.67	1587.18
991.83	1568.74
992.00	1525.74
992.16	1640.42
992.32	1609.70
992.48	1656.81
992.64	1468.39
992.80	1613.80
992.96	1656.81
993.12	1609.70
993.28	1621.99
993.44	1581.03
993.60	1665.00
993.76	1554.41
993.92	1597.42
994.08	1667.05
994.24	1673.19
994.40	1566.70
994.56	1650.66
994.72	1568.74
994.88	1689.57
995.04	1624.04
995.20	1581.03
995.36	1630.18
995.52	1591.27
995.68	1572.84
995.84	1587.18
996.00	1654.76
996.16	1605.61
996.32	1558.50
996.48	1605.61
996.64	1732.58
996.80	1597.42
996.96	1556.46
997.12	1562.60
997.28	1603.56
997.44	1601.51
997.60	1548.26
997.76	1687.53
997.92	1572.84
998.08	1720.29
998.24	1546.22
998.40	1691.62
998.56	1716.20
998.72	1572.84
998.88	1556.46
999.04	1685.48
999.20	1683.43
999.36	1607.66
999.52	1665.00
999.68	1609.70
999.84	1675.24
1000.00	1648.61
1000.16	1679.33
1000.32	1574.89
1000.48	1757.16
1000.64	1570.79
1000.80	1607.66
1000.95	1556.46
1001.11	1607.66
1001.27	1658.85
1001.43	1568.74
1001.59	1587.18
1001.75	1624.04
1001.91	1597.42
1002.07	1576.94
1002.23	1558.50
1002.39	1578.98
1002.55	1611.75
1002.71	1591.27
1002.87	1572.84
1003.03	1615.85
1003.19	1624.04
1003.34	1683.43
1003.50	1531.88
1003.66	1673.19
1003.82	1648.61
1003.98	1564.65
1004.14	1589.22
1004.30	1544.17
1004.46	1542.12
1004.62	1626.09
1004.78	1589.22
1004.94	1689.57
1005.09	1685.48
1005.25	1722.34
1005.41	1619.94
1005.57	1595.37
1005.73	1675.24
1005.89	1556.46
1006.05	1634.28
1006.21	1742.82
1006.37	1574.89
1006.52	1564.65
1006.68	1546.22
1006.84	1716.20
1007.00	1585.13
1007.16	1626.09
1007.32	1585.13
1007.48	1634.28
1007.64	1648.61
1007.79	1548.26
1007.95	1548.26
1008.11	1710.05
1008.27	1589.22
1008.43	1617.90
1008.59	1646.57
1008.75	1632.23
1008.91	1648.61
1009.06	1538.02
1009.22	1607.66
1009.38	1593.32
1009.54	1658.85
1009.70	1611.75
1009.86	1648.61
1010.01	1683.43
1010.17	1587.18
1010.33	1607.66
1010.49	1599.46
1010.65	1740.77
1010.81	1591.27
1010.96	1675.24
1011.12	1460.20
1011.28	1544.17
1011.44	1609.70
1011.60	1605.61
1011.76	1630.18
1011.91	1728.49
1012.07	1607.66
1012.23	1525.74
1012.39	1576.94
1012.55	1640.42
1012.71	1599.46
1012.86	1607.66
1013.02	1654.76
1013.18	1570.79
1013.34	1601.51
1013.50	1714.15
1013.65	1621.99
1013.81	1548.26
1013.97	1609.70
1014.13	1621.99
1014.29	1576.94
1014.44	1732.58
1014.60	1591.27
1014.76	1640.42
1014.92	1617.90
1015.07	1628.14
1015.23	1626.09
1015.39	1583.08
1015.55	1542.12
1015.71	1710.05
1015.86	1617.90
1016.02	1550.31
1016.18	1542.12
1016.34	1648.61
1016.49	1613.80
1016.65	1685.48
1016.81	1556.46
1016.97	1646.57
1017.12	1652.71
1017.28	1519.59
1017.44	1546.22
1017.60	1507.30
1017.75	1607.66
1017.91	1609.70
1018.07	1626.09
1018.23	1619.94
1018.38	1615.85
1018.54	1583.08
1018.70	1658.85
1018.86	1576.94
1019.01	1642.47
1019.17	1574.89
1019.33	1710.05
1019.49	1656.81
1019.64	1665.00
1019.80	1617.90
1019.96	1673.19
1020.12	1605.61
1020.27	1585.13
1020.43	1550.31
1020.59	1685.48
1020.74	1593.32
1020.90	1665.00
1021.06	1621.99
1021.22	1681.38
1021.37	1552.36
1021.53	1523.69
1021.69	1705.96
1021.84	1466.35
1022.00	1638.38
1022.16	1632.23
1022.31	1585.13
1022.47	1621.99
1022.63	1599.46
1022.79	1599.46
1022.94	1538.02
1023.10	1646.57
1023.26	1613.80
1023.41	1544.17
1023.57	1605.61
1023.73	1632.23
1023.88	1644.52
1024.04	1599.46
1024.20	1587.18
1024.35	1611.75
1024.51	1617.90
1024.67	1648.61
1024.82	1679.33
1024.98	1624.04
1025.14	1710.05
1025.29	1597.42
1025.45	1662.95
1025.61	1521.64
1025.76	1589.22
1025.92	1607.66
1026.08	1669.09
1026.23	1685.48
1026.39	1652.71
1026.55	1609.70
1026.70	1542.12
1026.86	1593.32
1027.02	1671.14
1027.17	1578.98
1027.33	1601.51
1027.48	1634.28
1027.64	1628.14
1027.80	1572.84
1027.95	1677.29
1028.11	1585.13
1028.27	1640.42
1028.42	1699.81
1028.58	1683.43
1028.73	1609.70
1028.89	1597.42
1029.05	1658.85
1029.20	1658.85
>>>>>End Processed Spectral Data<<<<<
