SpectraSuite Data File
++++++++++++++++++++++++++++++++++++
Date: Fri Jun 02 14:57:16 CEST 2017
User: INFO_000
Dark Spectrum Present: No
Reference Spectrum Present: No
Number of Sampled Component Spectra: 1
Spectrometers: USB4H00879
Integration Time (usec): 80000 (USB4H00879)
Spectra Averaged: 1 (USB4H00879)
Boxcar Smoothing: 0 (USB4H00879)
Correct for Electrical Dark: No (USB4H00879)
Strobe/Lamp Enabled: No (USB4H00879)
Correct for Detector Non-linearity: No (USB4H00879)
Correct for Stray Light: No (USB4H00879)
Number of Pixels in Processed Spectrum: 3648
>>>>>Begin Processed Spectral Data<<<<<
345.13	1273.84
345.34	1273.84
345.56	1273.84
345.78	1253.36
345.99	1286.12
346.21	1699.81
346.42	1683.43
346.64	1535.98
346.86	1779.68
347.07	1654.76
347.29	1732.58
347.50	1611.75
347.72	1617.90
347.94	1779.68
348.15	1562.60
348.37	1667.05
348.59	1738.73
348.80	1705.96
349.02	1710.05
349.23	1789.92
349.45	1740.77
349.67	1699.81
349.88	1722.34
350.10	1834.98
350.31	1740.77
350.53	1681.38
350.75	1841.12
350.96	1656.81
351.18	1722.34
351.39	1675.24
351.61	1685.48
351.82	1798.12
352.04	1769.44
352.26	1722.34
352.47	1832.93
352.69	1732.58
352.90	1599.46
353.12	1697.77
353.34	1724.39
353.55	1753.06
353.77	1742.82
353.98	1683.43
354.20	1667.05
354.41	1779.68
354.63	1705.96
354.85	1814.50
355.06	1765.35
355.28	1640.42
355.49	1677.29
355.71	1679.33
355.92	1683.43
356.14	1757.16
356.35	1699.81
356.57	1722.34
356.79	1744.87
357.00	1701.86
357.22	1755.11
357.43	1654.76
357.65	1853.41
357.86	1675.24
358.08	1724.39
358.29	1740.77
358.51	1765.35
358.72	1693.67
358.94	1687.53
359.16	1705.96
359.37	1703.91
359.59	1708.01
359.80	1777.64
360.02	1683.43
360.23	1775.59
360.45	1757.16
360.66	1675.24
360.88	1560.55
361.09	1691.62
361.31	1814.50
361.52	1732.58
361.74	1748.97
361.95	1816.55
362.17	1665.00
362.38	1806.31
362.60	1789.92
362.81	1679.33
363.03	1693.67
363.24	1679.33
363.46	1804.26
363.67	1728.49
363.89	1781.73
364.10	1708.01
364.32	1697.77
364.53	1687.53
364.75	1605.61
364.96	1746.92
365.18	1640.42
365.39	1738.73
365.61	1650.66
365.82	1826.79
366.04	1646.57
366.25	1558.50
366.47	1691.62
366.68	1775.59
366.90	1589.22
367.11	1732.58
367.33	1843.17
367.54	1693.67
367.76	1667.05
367.97	1738.73
368.19	1701.86
368.40	1753.06
368.62	1585.13
368.83	1726.44
369.05	1705.96
369.26	1609.70
369.48	1658.85
369.69	1679.33
369.91	1730.53
370.12	1720.29
370.33	1779.68
370.55	1615.85
370.76	1691.62
370.98	1767.40
371.19	1701.86
371.41	1609.70
371.62	1691.62
371.84	1619.94
372.05	1755.11
372.27	1652.71
372.48	1650.66
372.69	1679.33
372.91	1777.64
373.12	1753.06
373.34	1660.90
373.55	1679.33
373.77	1789.92
373.98	1701.86
374.20	1751.01
374.41	1927.14
374.62	1712.10
374.84	1722.34
375.05	1710.05
375.27	1716.20
375.48	1695.72
375.70	1656.81
375.91	1734.63
376.12	1773.54
376.34	1650.66
376.55	1722.34
376.77	1769.44
376.98	1693.67
377.19	1656.81
377.41	1599.46
377.62	1646.57
377.84	1720.29
378.05	1761.25
378.27	1703.91
378.48	1816.55
378.69	1861.60
378.91	1748.97
379.12	1621.99
379.34	1722.34
379.55	1851.36
379.76	1785.83
379.98	1675.24
380.19	1691.62
380.41	1683.43
380.62	1767.40
380.83	1685.48
381.05	1617.90
381.26	1804.26
381.47	1705.96
381.69	1679.33
381.90	1720.29
382.12	1662.95
382.33	1730.53
382.54	1703.91
382.76	1753.06
382.97	1705.96
383.19	1548.26
383.40	1712.10
383.61	1636.33
383.83	1654.76
384.04	1675.24
384.25	1771.49
384.47	1734.63
384.68	1736.68
384.89	1568.74
385.11	1640.42
385.32	1685.48
385.54	1640.42
385.75	1669.09
385.96	1697.77
386.18	1636.33
386.39	1720.29
386.60	1658.85
386.82	1753.06
387.03	1726.44
387.24	1736.68
387.46	1703.91
387.67	1708.01
387.88	1734.63
388.10	1703.91
388.31	1673.19
388.52	1763.30
388.74	1658.85
388.95	1652.71
389.16	1718.25
389.38	1660.90
389.59	1761.25
389.80	1777.64
390.02	1689.57
390.23	1767.40
390.44	1712.10
390.66	1624.04
390.87	1642.47
391.08	1660.90
391.30	1789.92
391.51	1759.21
391.72	1687.53
391.94	1683.43
392.15	1732.58
392.36	1660.90
392.58	1673.19
392.79	1716.20
393.00	1787.88
393.22	1695.72
393.43	1757.16
393.64	1826.79
393.85	1753.06
394.07	1578.98
394.28	1683.43
394.49	1712.10
394.71	1708.01
394.92	1718.25
395.13	1597.42
395.35	1673.19
395.56	1726.44
395.77	1712.10
395.98	1695.72
396.20	1691.62
396.41	1699.81
396.62	1765.35
396.84	1665.00
397.05	1693.67
397.26	1744.87
397.47	1759.21
397.69	1642.47
397.90	1847.27
398.11	1699.81
398.32	1656.81
398.54	1648.61
398.75	1669.09
398.96	1703.91
399.18	1804.26
399.39	1765.35
399.60	1800.16
399.81	1671.14
400.03	1621.99
400.24	1941.47
400.45	1705.96
400.66	1716.20
400.88	1585.13
401.09	1818.60
401.30	1751.01
401.51	1787.88
401.73	1796.07
401.94	1798.12
402.15	1673.19
402.36	1800.16
402.58	1744.87
402.79	1746.92
403.00	1667.05
403.21	1755.11
403.43	1783.78
403.64	1789.92
403.85	1724.39
404.06	1740.77
404.27	1589.22
404.49	1683.43
404.70	1662.95
404.91	1830.88
405.12	1701.86
405.34	1703.91
405.55	1839.08
405.76	1615.85
405.97	1755.11
406.19	1808.36
406.40	1626.09
406.61	1765.35
406.82	1720.29
407.03	1628.14
407.25	1695.72
407.46	1873.89
407.67	1726.44
407.88	1761.25
408.09	1765.35
408.31	1728.49
408.52	1767.40
408.73	1695.72
408.94	1697.77
409.15	1716.20
409.37	1734.63
409.58	1767.40
409.79	1699.81
410.00	1853.41
410.21	1687.53
410.43	1652.71
410.64	1683.43
410.85	1777.64
411.06	1742.82
411.27	1736.68
411.48	1834.98
411.70	1724.39
411.91	1705.96
412.12	1763.30
412.33	1724.39
412.54	1640.42
412.76	1748.97
412.97	1763.30
413.18	1718.25
413.39	1783.78
413.60	1742.82
413.81	1722.34
414.03	1675.24
414.24	1638.38
414.45	1791.97
414.66	1654.76
414.87	1658.85
415.08	1703.91
415.30	1685.48
415.51	1753.06
415.72	1718.25
415.93	1609.70
416.14	1732.58
416.35	1683.43
416.56	1722.34
416.78	1710.05
416.99	1679.33
417.20	1761.25
417.41	1738.73
417.62	1679.33
417.83	1662.95
418.04	1732.58
418.26	1716.20
418.47	1712.10
418.68	1742.82
418.89	1802.21
419.10	1875.94
419.31	1732.58
419.52	1736.68
419.73	1683.43
419.95	1757.16
420.16	1753.06
420.37	1705.96
420.58	1755.11
420.79	1535.98
421.00	1640.42
421.21	1695.72
421.42	1677.29
421.63	1675.24
421.85	1669.09
422.06	1728.49
422.27	1755.11
422.48	1722.34
422.69	1705.96
422.90	1619.94
423.11	1675.24
423.32	1773.54
423.53	1855.46
423.75	1675.24
423.96	1728.49
424.17	1769.44
424.38	1802.21
424.59	1654.76
424.80	1628.14
425.01	1689.57
425.22	1634.28
425.43	1730.53
425.64	1837.03
425.85	1751.01
426.06	1843.17
426.28	1652.71
426.49	1650.66
426.70	1632.23
426.91	1665.00
427.12	1646.57
427.33	1718.25
427.54	1636.33
427.75	1660.90
427.96	1757.16
428.17	1828.84
428.38	1673.19
428.59	1755.11
428.80	1765.35
429.01	1607.66
429.23	1638.38
429.44	1683.43
429.65	1703.91
429.86	1665.00
430.07	1701.86
430.28	1654.76
430.49	1796.07
430.70	1722.34
430.91	1800.16
431.12	1576.94
431.33	1658.85
431.54	1812.45
431.75	1712.10
431.96	1658.85
432.17	1673.19
432.38	1755.11
432.59	1789.92
432.80	1779.68
433.01	1667.05
433.22	1662.95
433.43	1744.87
433.64	1773.54
433.85	1730.53
434.06	1759.21
434.27	1619.94
434.49	1632.23
434.70	1746.92
434.91	1675.24
435.12	1708.01
435.33	1728.49
435.54	1708.01
435.75	1599.46
435.96	1716.20
436.17	1685.48
436.38	1785.83
436.59	1773.54
436.80	1626.09
437.01	1806.31
437.22	1730.53
437.43	1767.40
437.64	1667.05
437.85	1724.39
438.06	1763.30
438.27	1689.57
438.48	1730.53
438.69	1781.73
438.90	1699.81
439.11	1744.87
439.32	1779.68
439.53	1662.95
439.74	1636.33
439.95	1673.19
440.16	1658.85
440.37	1634.28
440.57	1624.04
440.78	1699.81
440.99	1689.57
441.20	1830.88
441.41	1601.51
441.62	1585.13
441.83	1683.43
442.04	1656.81
442.25	1687.53
442.46	1621.99
442.67	1687.53
442.88	1884.13
443.09	1740.77
443.30	1605.61
443.51	1695.72
443.72	1619.94
443.93	1593.32
444.14	1875.94
444.35	1687.53
444.56	1724.39
444.77	1648.61
444.98	1744.87
445.19	1714.15
445.40	1718.25
445.61	1654.76
445.81	1644.52
446.02	1798.12
446.23	1642.47
446.44	1708.01
446.65	1656.81
446.86	1685.48
447.07	1855.46
447.28	1738.73
447.49	1720.29
447.70	1644.52
447.91	1714.15
448.12	1683.43
448.33	1720.29
448.54	1683.43
448.74	1740.77
448.95	1677.29
449.16	1732.58
449.37	1753.06
449.58	1761.25
449.79	1824.74
450.00	1605.61
450.21	1650.66
450.42	1628.14
450.63	1748.97
450.84	1605.61
451.05	1724.39
451.25	1695.72
451.46	1628.14
451.67	1783.78
451.88	1685.48
452.09	1626.09
452.30	1650.66
452.51	1677.29
452.72	1761.25
452.93	1755.11
453.13	1675.24
453.34	1611.75
453.55	1777.64
453.76	1673.19
453.97	1689.57
454.18	1599.46
454.39	1708.01
454.60	1646.57
454.81	1773.54
455.01	1697.77
455.22	1585.13
455.43	1658.85
455.64	1751.01
455.85	1775.59
456.06	1771.49
456.27	1785.83
456.48	1787.88
456.68	1732.58
456.89	1814.50
457.10	1699.81
457.31	1691.62
457.52	1753.06
457.73	1724.39
457.94	1732.58
458.14	1619.94
458.35	1708.01
458.56	1591.27
458.77	1716.20
458.98	1658.85
459.19	1658.85
459.39	1714.15
459.60	1636.33
459.81	1718.25
460.02	1621.99
460.23	1716.20
460.44	1650.66
460.65	1740.77
460.85	1675.24
461.06	1679.33
461.27	1695.72
461.48	1626.09
461.69	1632.23
461.89	1609.70
462.10	1691.62
462.31	1566.70
462.52	1570.79
462.73	1585.13
462.94	1726.44
463.14	1699.81
463.35	1644.52
463.56	1822.69
463.77	1699.81
463.98	1642.47
464.18	1683.43
464.39	1728.49
464.60	1757.16
464.81	1542.12
465.02	1773.54
465.23	1740.77
465.43	1708.01
465.64	1699.81
465.85	1656.81
466.06	1665.00
466.27	1738.73
466.47	1621.99
466.68	1720.29
466.89	1621.99
467.10	1572.84
467.30	1624.04
467.51	1785.83
467.72	1716.20
467.93	1630.18
468.14	1658.85
468.34	1748.97
468.55	1726.44
468.76	1777.64
468.97	1687.53
469.17	1777.64
469.38	1855.46
469.59	1697.77
469.80	1722.34
470.01	1732.58
470.21	1662.95
470.42	1673.19
470.63	1808.36
470.84	1812.45
471.04	1693.67
471.25	1775.59
471.46	1738.73
471.67	1826.79
471.87	1687.53
472.08	1675.24
472.29	1591.27
472.50	1757.16
472.70	1669.09
472.91	1609.70
473.12	1665.00
473.33	1763.30
473.53	1761.25
473.74	1677.29
473.95	1673.19
474.16	1671.14
474.36	1634.28
474.57	1775.59
474.78	1669.09
474.99	1775.59
475.19	1693.67
475.40	1712.10
475.61	1804.26
475.81	1699.81
476.02	1660.90
476.23	1757.16
476.44	1656.81
476.64	1648.61
476.85	1755.11
477.06	1667.05
477.27	1662.95
477.47	1675.24
477.68	1695.72
477.89	1714.15
478.09	1726.44
478.30	1615.85
478.51	1646.57
478.71	1613.80
478.92	1759.21
479.13	1703.91
479.34	1679.33
479.54	1665.00
479.75	1669.09
479.96	1716.20
480.16	1650.66
480.37	1720.29
480.58	1738.73
480.78	1800.16
480.99	1626.09
481.20	1681.38
481.41	1716.20
481.61	1785.83
481.82	1726.44
482.03	1611.75
482.23	1632.23
482.44	1769.44
482.65	1826.79
482.85	1736.68
483.06	1716.20
483.27	1667.05
483.47	1718.25
483.68	1710.05
483.89	1705.96
484.09	1746.92
484.30	1724.39
484.51	1779.68
484.71	1624.04
484.92	1615.85
485.13	1681.38
485.33	1654.76
485.54	1687.53
485.75	1675.24
485.95	1753.06
486.16	1662.95
486.37	1730.53
486.57	1648.61
486.78	1705.96
486.98	1718.25
487.19	1648.61
487.40	1779.68
487.60	1708.01
487.81	1724.39
488.02	1617.90
488.22	1744.87
488.43	1783.78
488.64	1689.57
488.84	1607.66
489.05	1738.73
489.25	1679.33
489.46	1712.10
489.67	1677.29
489.87	1789.92
490.08	1701.86
490.29	1689.57
490.49	1744.87
490.70	1794.02
490.90	1736.68
491.11	1710.05
491.32	1673.19
491.52	1624.04
491.73	1708.01
491.94	1779.68
492.14	1624.04
492.35	1703.91
492.55	1810.40
492.76	1601.51
492.97	1660.90
493.17	1675.24
493.38	1826.79
493.58	1785.83
493.79	1724.39
494.00	1679.33
494.20	1632.23
494.41	1812.45
494.61	1673.19
494.82	1703.91
495.02	1593.32
495.23	1822.69
495.44	1660.90
495.64	1658.85
495.85	1685.48
496.05	1712.10
496.26	1705.96
496.47	1759.21
496.67	1751.01
496.88	1806.31
497.08	1699.81
497.29	1601.51
497.49	1746.92
497.70	1681.38
497.91	1712.10
498.11	1722.34
498.32	1705.96
498.52	1777.64
498.73	1644.52
498.93	1777.64
499.14	1820.64
499.34	1736.68
499.55	1763.30
499.76	1634.28
499.96	1753.06
500.17	1667.05
500.37	1683.43
500.58	1658.85
500.78	1658.85
500.99	1642.47
501.19	1724.39
501.40	1777.64
501.60	1650.66
501.81	1697.77
502.02	1757.16
502.22	1671.14
502.43	1675.24
502.63	1847.27
502.84	1701.86
503.04	1673.19
503.25	1730.53
503.45	1705.96
503.66	1617.90
503.86	1763.30
504.07	1742.82
504.27	1714.15
504.48	1685.48
504.68	1679.33
504.89	1824.74
505.09	1665.00
505.30	1634.28
505.50	1751.01
505.71	1675.24
505.91	1740.77
506.12	1732.58
506.32	1640.42
506.53	1667.05
506.73	1744.87
506.94	1699.81
507.14	1738.73
507.35	1777.64
507.55	1658.85
507.76	1669.09
507.96	1691.62
508.17	1755.11
508.37	1652.71
508.58	1886.18
508.78	1779.68
508.99	1820.64
509.19	1736.68
509.40	1671.14
509.60	1667.05
509.81	1791.97
510.01	1660.90
510.22	1705.96
510.42	1757.16
510.63	1785.83
510.83	1650.66
511.04	1566.70
511.24	1798.12
511.44	1689.57
511.65	1728.49
511.85	1662.95
512.06	1724.39
512.26	1660.90
512.47	1783.78
512.67	1646.57
512.88	1787.88
513.08	1607.66
513.29	1703.91
513.49	1597.42
513.69	1667.05
513.90	1667.05
514.10	1759.21
514.31	1718.25
514.51	1675.24
514.72	1681.38
514.92	1740.77
515.13	1656.81
515.33	1675.24
515.53	1619.94
515.74	1703.91
515.94	1693.67
516.15	1736.68
516.35	1628.14
516.56	1638.38
516.76	1718.25
516.96	1691.62
517.17	1665.00
517.37	1712.10
517.58	1671.14
517.78	1626.09
517.99	1695.72
518.19	1937.38
518.39	1703.91
518.60	1730.53
518.80	1652.71
519.01	1757.16
519.21	1660.90
519.41	1697.77
519.62	1597.42
519.82	1800.16
520.03	1634.28
520.23	1642.47
520.43	1648.61
520.64	1808.36
520.84	1777.64
521.05	1601.51
521.25	1740.77
521.45	1740.77
521.66	1681.38
521.86	1734.63
522.07	1689.57
522.27	1751.01
522.47	1601.51
522.68	1640.42
522.88	1679.33
523.08	1765.35
523.29	1603.56
523.49	1640.42
523.70	1683.43
523.90	1650.66
524.10	1736.68
524.31	1667.05
524.51	1525.74
524.71	1781.73
524.92	1726.44
525.12	1634.28
525.33	1753.06
525.53	1681.38
525.73	1703.91
525.94	1624.04
526.14	1605.61
526.34	1619.94
526.55	1652.71
526.75	1714.15
526.95	1820.64
527.16	1660.90
527.36	1662.95
527.56	1787.88
527.77	1617.90
527.97	1765.35
528.17	1712.10
528.38	1740.77
528.58	1687.53
528.78	1755.11
528.99	1683.43
529.19	1689.57
529.39	1626.09
529.60	1636.33
529.80	1712.10
530.00	1679.33
530.21	1777.64
530.41	1708.01
530.61	1740.77
530.82	1675.24
531.02	1697.77
531.22	1662.95
531.43	1718.25
531.63	1650.66
531.83	1716.20
532.04	1818.60
532.24	1757.16
532.44	1628.14
532.64	1736.68
532.85	1630.18
533.05	1662.95
533.25	1634.28
533.46	1718.25
533.66	1714.15
533.86	1718.25
534.07	1746.92
534.27	1732.58
534.47	1746.92
534.67	1693.67
534.88	1652.71
535.08	1726.44
535.28	1722.34
535.49	1746.92
535.69	1814.50
535.89	1736.68
536.09	1761.25
536.30	1724.39
536.50	1566.70
536.70	1761.25
536.91	1658.85
537.11	1761.25
537.31	1683.43
537.51	1716.20
537.72	1744.87
537.92	1763.30
538.12	1757.16
538.32	1705.96
538.53	1650.66
538.73	1699.81
538.93	1710.05
539.13	1712.10
539.34	1779.68
539.54	1556.46
539.74	1773.54
539.94	1650.66
540.15	1728.49
540.35	1640.42
540.55	1656.81
540.75	1630.18
540.96	1722.34
541.16	1667.05
541.36	1736.68
541.56	1708.01
541.77	1787.88
541.97	1802.21
542.17	1640.42
542.37	1783.78
542.58	1744.87
542.78	1667.05
542.98	1710.05
543.18	1693.67
543.38	1728.49
543.59	1730.53
543.79	1712.10
543.99	1654.76
544.19	1642.47
544.40	1677.29
544.60	1691.62
544.80	1671.14
545.00	1640.42
545.20	1820.64
545.41	1701.86
545.61	1613.80
545.81	1689.57
546.01	1667.05
546.21	1650.66
546.42	1712.10
546.62	1818.60
546.82	1683.43
547.02	1716.20
547.22	1642.47
547.43	1828.84
547.63	1662.95
547.83	1697.77
548.03	1632.23
548.23	1726.44
548.44	1671.14
548.64	1671.14
548.84	1646.57
549.04	1597.42
549.24	1841.12
549.45	1920.99
549.65	1638.38
549.85	1675.24
550.05	1705.96
550.25	1515.50
550.45	1796.07
550.66	1773.54
550.86	1646.57
551.06	1679.33
551.26	1644.52
551.46	1642.47
551.66	1673.19
551.87	1740.77
552.07	1685.48
552.27	1658.85
552.47	1802.21
552.67	1667.05
552.87	1748.97
553.07	1683.43
553.28	1658.85
553.48	1761.25
553.68	1662.95
553.88	1736.68
554.08	1699.81
554.28	1679.33
554.48	1691.62
554.69	1798.12
554.89	1724.39
555.09	1638.38
555.29	1630.18
555.49	1720.29
555.69	1658.85
555.89	1695.72
556.10	1720.29
556.30	1660.90
556.50	1665.00
556.70	1714.15
556.90	1753.06
557.10	1665.00
557.30	1751.01
557.50	1601.51
557.70	1681.38
557.91	1621.99
558.11	1638.38
558.31	1740.77
558.51	1716.20
558.71	1794.02
558.91	1761.25
559.11	1732.58
559.31	1650.66
559.51	1667.05
559.72	1769.44
559.92	1685.48
560.12	1621.99
560.32	1806.31
560.52	1728.49
560.72	1665.00
560.92	1765.35
561.12	1722.34
561.32	1648.61
561.52	1607.66
561.72	1869.80
561.93	1830.88
562.13	1656.81
562.33	1683.43
562.53	1708.01
562.73	1701.86
562.93	1611.75
563.13	1812.45
563.33	1736.68
563.53	1712.10
563.73	1791.97
563.93	1789.92
564.13	1718.25
564.33	1775.59
564.53	1656.81
564.74	1662.95
564.94	1689.57
565.14	1806.31
565.34	1763.30
565.54	1761.25
565.74	1662.95
565.94	1671.14
566.14	1648.61
566.34	1689.57
566.54	1642.47
566.74	1669.09
566.94	1689.57
567.14	1708.01
567.34	1775.59
567.54	1705.96
567.74	1732.58
567.94	1767.40
568.14	1705.96
568.34	1728.49
568.54	1648.61
568.74	1732.58
568.94	1703.91
569.14	1769.44
569.34	1681.38
569.54	1679.33
569.75	1607.66
569.95	1742.82
570.15	1773.54
570.35	1662.95
570.55	1716.20
570.75	1665.00
570.95	1722.34
571.15	1763.30
571.35	1716.20
571.55	1636.33
571.75	1738.73
571.95	1665.00
572.15	1611.75
572.35	1658.85
572.55	1759.21
572.75	1654.76
572.95	1601.51
573.15	1728.49
573.35	1728.49
573.55	1746.92
573.75	1669.09
573.95	1822.69
574.15	1695.72
574.35	1722.34
574.55	1761.25
574.75	1632.23
574.95	1691.62
575.15	1593.32
575.34	1724.39
575.54	1703.91
575.74	1636.33
575.94	1603.56
576.14	1615.85
576.34	1728.49
576.54	1626.09
576.74	1763.30
576.94	1638.38
577.14	1640.42
577.34	1796.07
577.54	1617.90
577.74	1560.55
577.94	1650.66
578.14	1656.81
578.34	1775.59
578.54	1583.08
578.74	1697.77
578.94	1644.52
579.14	1802.21
579.34	1630.18
579.54	1806.31
579.74	1630.18
579.94	1624.04
580.13	1703.91
580.33	1624.04
580.53	1662.95
580.73	1656.81
580.93	1740.77
581.13	1693.67
581.33	1687.53
581.53	1671.14
581.73	1687.53
581.93	1634.28
582.13	1703.91
582.33	1714.15
582.53	1607.66
582.73	1712.10
582.92	1699.81
583.12	1777.64
583.32	1658.85
583.52	1716.20
583.72	1779.68
583.92	1722.34
584.12	1712.10
584.32	1732.58
584.52	1538.02
584.72	1660.90
584.92	1703.91
585.11	1718.25
585.31	1771.49
585.51	1630.18
585.71	1683.43
585.91	1732.58
586.11	1683.43
586.31	1726.44
586.51	1650.66
586.71	1796.07
586.91	1687.53
587.10	1769.44
587.30	1791.97
587.50	1691.62
587.70	1703.91
587.90	1791.97
588.10	1597.42
588.30	1697.77
588.50	1683.43
588.69	1660.90
588.89	1712.10
589.09	1806.31
589.29	1632.23
589.49	1722.34
589.69	1630.18
589.89	1722.34
590.08	1675.24
590.28	1683.43
590.48	1753.06
590.68	1703.91
590.88	1683.43
591.08	1656.81
591.28	1781.73
591.47	1710.05
591.67	1613.80
591.87	1714.15
592.07	1753.06
592.27	1667.05
592.47	1564.65
592.67	1716.20
592.86	1693.67
593.06	1677.29
593.26	1777.64
593.46	1755.11
593.66	1583.08
593.86	1753.06
594.05	1748.97
594.25	1705.96
594.45	1673.19
594.65	1824.74
594.85	1775.59
595.05	1656.81
595.24	1720.29
595.44	1687.53
595.64	1703.91
595.84	1744.87
596.04	1732.58
596.23	1732.58
596.43	1705.96
596.63	1716.20
596.83	1687.53
597.03	1869.80
597.22	1748.97
597.42	1716.20
597.62	1753.06
597.82	1744.87
598.02	1724.39
598.21	1675.24
598.41	1642.47
598.61	1654.76
598.81	1736.68
599.01	1722.34
599.20	1726.44
599.40	1646.57
599.60	1742.82
599.80	1761.25
600.00	1796.07
600.19	1744.87
600.39	1689.57
600.59	1683.43
600.79	1726.44
600.98	1736.68
601.18	1783.78
601.38	1738.73
601.58	1650.66
601.78	1705.96
601.97	1810.40
602.17	1724.39
602.37	1640.42
602.57	1763.30
602.76	1699.81
602.96	1650.66
603.16	1576.94
603.36	1738.73
603.55	1724.39
603.75	1708.01
603.95	1718.25
604.15	1800.16
604.34	1773.54
604.54	1738.73
604.74	1734.63
604.94	1671.14
605.13	1687.53
605.33	1681.38
605.53	1632.23
605.73	1816.55
605.92	1644.52
606.12	1642.47
606.32	1613.80
606.52	1773.54
606.71	1714.15
606.91	1710.05
607.11	1701.86
607.30	1687.53
607.50	1617.90
607.70	1763.30
607.90	1701.86
608.09	1693.67
608.29	1720.29
608.49	1804.26
608.68	1710.05
608.88	1748.97
609.08	1621.99
609.28	1755.11
609.47	1699.81
609.67	1753.06
609.87	1755.11
610.06	1722.34
610.26	1685.48
610.46	1753.06
610.66	1683.43
610.85	1691.62
611.05	1755.11
611.25	1685.48
611.44	1669.09
611.64	1718.25
611.84	1767.40
612.03	1722.34
612.23	1728.49
612.43	1767.40
612.62	1791.97
612.82	1798.12
613.02	1767.40
613.21	1755.11
613.41	1794.02
613.61	1689.57
613.80	1708.01
614.00	1671.14
614.20	1753.06
614.39	1837.03
614.59	1837.03
614.79	1652.71
614.98	1785.83
615.18	1689.57
615.38	1609.70
615.57	1683.43
615.77	1834.98
615.97	1708.01
616.16	1658.85
616.36	1755.11
616.56	1658.85
616.75	1736.68
616.95	1675.24
617.15	1708.01
617.34	1662.95
617.54	1816.55
617.74	1886.18
617.93	1847.27
618.13	1712.10
618.32	1652.71
618.52	1703.91
618.72	1714.15
618.91	1826.79
619.11	1769.44
619.31	1783.78
619.50	1693.67
619.70	1662.95
619.90	1746.92
620.09	1708.01
620.29	1683.43
620.48	1851.36
620.68	1673.19
620.88	1775.59
621.07	1716.20
621.27	1791.97
621.46	1738.73
621.66	1773.54
621.86	1671.14
622.05	1675.24
622.25	1814.50
622.44	1654.76
622.64	1755.11
622.84	1578.98
623.03	1613.80
623.23	1673.19
623.42	1720.29
623.62	1757.16
623.82	1763.30
624.01	1732.58
624.21	1769.44
624.40	1869.80
624.60	1662.95
624.80	1699.81
624.99	1695.72
625.19	1679.33
625.38	1759.21
625.58	1740.77
625.77	1654.76
625.97	1794.02
626.17	1703.91
626.36	1656.81
626.56	1716.20
626.75	1667.05
626.95	1767.40
627.14	1740.77
627.34	1697.77
627.54	1789.92
627.73	1761.25
627.93	1765.35
628.12	1687.53
628.32	1755.11
628.51	1708.01
628.71	1834.98
628.90	1794.02
629.10	1662.95
629.30	1744.87
629.49	1691.62
629.69	1662.95
629.88	1693.67
630.08	1798.12
630.27	1933.28
630.47	1658.85
630.66	1724.39
630.86	1744.87
631.05	1644.52
631.25	1675.24
631.44	1794.02
631.64	1669.09
631.84	1687.53
632.03	1769.44
632.23	1714.15
632.42	1710.05
632.62	1660.90
632.81	1642.47
633.01	1720.29
633.20	1834.98
633.40	1849.32
633.59	1769.44
633.79	1654.76
633.98	1742.82
634.18	1744.87
634.37	1839.08
634.57	1685.48
634.76	1689.57
634.96	1822.69
635.15	1900.52
635.35	1736.68
635.54	1673.19
635.74	1724.39
635.93	1687.53
636.13	1626.09
636.32	1736.68
636.52	1785.83
636.71	1701.86
636.91	1759.21
637.10	1712.10
637.30	1693.67
637.49	1746.92
637.69	1748.97
637.88	1763.30
638.08	1636.33
638.27	1662.95
638.46	1722.34
638.66	1628.14
638.85	1669.09
639.05	1730.53
639.24	1847.27
639.44	1748.97
639.63	1771.49
639.83	1816.55
640.02	1687.53
640.22	1710.05
640.41	1640.42
640.61	1751.01
640.80	1787.88
640.99	1665.00
641.19	1798.12
641.38	1767.40
641.58	1705.96
641.77	1720.29
641.97	1722.34
642.16	1748.97
642.36	1753.06
642.55	1689.57
642.74	1753.06
642.94	1671.14
643.13	1779.68
643.33	1806.31
643.52	1710.05
643.72	1763.30
643.91	1679.33
644.10	1832.93
644.30	1718.25
644.49	1818.60
644.69	1746.92
644.88	1712.10
645.08	1748.97
645.27	1714.15
645.46	1658.85
645.66	1761.25
645.85	1708.01
646.05	1757.16
646.24	1662.95
646.43	1773.54
646.63	1753.06
646.82	1753.06
647.02	1757.16
647.21	1843.17
647.40	1687.53
647.60	1650.66
647.79	1814.50
647.99	1730.53
648.18	1726.44
648.37	1722.34
648.57	1755.11
648.76	1650.66
648.96	1734.63
649.15	1673.19
649.34	1808.36
649.54	1726.44
649.73	1634.28
649.92	1765.35
650.12	1748.97
650.31	1708.01
650.51	1923.04
650.70	1718.25
650.89	1681.38
651.09	1822.69
651.28	1748.97
651.47	1697.77
651.67	1845.22
651.86	1806.31
652.06	1703.91
652.25	1689.57
652.44	1632.23
652.64	1720.29
652.83	1726.44
653.02	1763.30
653.22	1781.73
653.41	1695.72
653.60	1681.38
653.80	1640.42
653.99	1783.78
654.18	1695.72
654.38	1675.24
654.57	1779.68
654.76	1742.82
654.96	1695.72
655.15	1642.47
655.34	1712.10
655.54	1658.85
655.73	1751.01
655.92	1677.29
656.12	1691.62
656.31	1830.88
656.50	1724.39
656.70	1787.88
656.89	1665.00
657.08	1685.48
657.28	1789.92
657.47	1675.24
657.66	1736.68
657.86	1576.94
658.05	1691.62
658.24	1716.20
658.43	1812.45
658.63	1603.56
658.82	1781.73
659.01	1761.25
659.21	1757.16
659.40	1628.14
659.59	1677.29
659.79	1740.77
659.98	1753.06
660.17	1726.44
660.36	1679.33
660.56	1732.58
660.75	1800.16
660.94	1701.86
661.14	1748.97
661.33	1791.97
661.52	1748.97
661.71	1755.11
661.91	1644.52
662.10	1732.58
662.29	1585.13
662.49	1660.90
662.68	1669.09
662.87	1593.32
663.06	1732.58
663.26	1716.20
663.45	1912.80
663.64	1746.92
663.83	1677.29
664.03	1843.17
664.22	1755.11
664.41	1814.50
664.60	1753.06
664.80	1675.24
664.99	1728.49
665.18	1740.77
665.37	1714.15
665.57	1822.69
665.76	1798.12
665.95	1722.34
666.14	1677.29
666.34	1746.92
666.53	1652.71
666.72	1658.85
666.91	1720.29
667.11	1748.97
667.30	1847.27
667.49	1685.48
667.68	1789.92
667.87	1718.25
668.07	1683.43
668.26	1667.05
668.45	1687.53
668.64	1646.57
668.84	1744.87
669.03	1642.47
669.22	1798.12
669.41	1746.92
669.60	1673.19
669.80	1779.68
669.99	1748.97
670.18	1703.91
670.37	1814.50
670.57	1734.63
670.76	1693.67
670.95	1697.77
671.14	1652.71
671.33	1791.97
671.53	1734.63
671.72	1783.78
671.91	1763.30
672.10	1744.87
672.29	1679.33
672.48	1669.09
672.68	1699.81
672.87	1607.66
673.06	1730.53
673.25	1699.81
673.44	1591.27
673.64	1683.43
673.83	1759.21
674.02	1658.85
674.21	1767.40
674.40	1673.19
674.59	1681.38
674.79	1687.53
674.98	1775.59
675.17	1744.87
675.36	1705.96
675.55	1665.00
675.74	1703.91
675.94	1834.98
676.13	1720.29
676.32	1746.92
676.51	1710.05
676.70	1648.61
676.89	1755.11
677.08	1675.24
677.28	1853.41
677.47	1708.01
677.66	1683.43
677.85	1646.57
678.04	1779.68
678.23	1781.73
678.42	1677.29
678.62	1771.49
678.81	1779.68
679.00	1724.39
679.19	1802.21
679.38	1781.73
679.57	1673.19
679.76	1732.58
679.96	1718.25
680.15	1775.59
680.34	1683.43
680.53	1728.49
680.72	1775.59
680.91	1671.14
681.10	1744.87
681.29	1675.24
681.48	1738.73
681.68	1705.96
681.87	1828.84
682.06	1759.21
682.25	1847.27
682.44	1607.66
682.63	1822.69
682.82	1605.61
683.01	1787.88
683.20	1722.34
683.39	1794.02
683.59	1691.62
683.78	1662.95
683.97	1701.86
684.16	1675.24
684.35	1675.24
684.54	1773.54
684.73	1658.85
684.92	1667.05
685.11	1839.08
685.30	1730.53
685.49	1775.59
685.69	1724.39
685.88	1677.29
686.07	1634.28
686.26	1716.20
686.45	1695.72
686.64	1742.82
686.83	1748.97
687.02	1812.45
687.21	1820.64
687.40	1687.53
687.59	1837.03
687.78	1695.72
687.97	1796.07
688.16	1685.48
688.35	1744.87
688.54	1681.38
688.74	1581.03
688.93	1755.11
689.12	1681.38
689.31	1884.13
689.50	1789.92
689.69	1626.09
689.88	1695.72
690.07	1732.58
690.26	1720.29
690.45	1662.95
690.64	1712.10
690.83	1640.42
691.02	1742.82
691.21	1765.35
691.40	1687.53
691.59	1638.38
691.78	1740.77
691.97	1701.86
692.16	1716.20
692.35	1742.82
692.54	1871.84
692.73	1644.52
692.92	1806.31
693.11	1726.44
693.30	1798.12
693.49	1646.57
693.68	1794.02
693.87	1705.96
694.06	1677.29
694.25	1638.38
694.44	1771.49
694.63	1644.52
694.82	1669.09
695.01	1722.34
695.20	1761.25
695.39	1714.15
695.58	1765.35
695.77	1583.08
695.96	1617.90
696.15	1624.04
696.34	1654.76
696.53	1681.38
696.72	1667.05
696.91	1658.85
697.10	1718.25
697.29	1753.06
697.48	1839.08
697.67	1712.10
697.86	1722.34
698.05	1658.85
698.24	1751.01
698.43	1683.43
698.62	1705.96
698.81	1642.47
699.00	1773.54
699.19	1783.78
699.38	1708.01
699.57	1660.90
699.76	1751.01
699.95	1609.70
700.14	1662.95
700.32	1675.24
700.51	1665.00
700.70	1669.09
700.89	1734.63
701.08	1761.25
701.27	1697.77
701.46	1771.49
701.65	1716.20
701.84	1675.24
702.03	1634.28
702.22	1742.82
702.41	1802.21
702.60	1753.06
702.79	1744.87
702.98	1716.20
703.17	1849.32
703.35	1728.49
703.54	1736.68
703.73	1740.77
703.92	1708.01
704.11	1708.01
704.30	1712.10
704.49	1849.32
704.68	1673.19
704.87	1679.33
705.06	1845.22
705.25	1691.62
705.43	1636.33
705.62	1658.85
705.81	1820.64
706.00	1662.95
706.19	1697.77
706.38	1689.57
706.57	1728.49
706.76	1603.56
706.95	1744.87
707.14	1798.12
707.32	1724.39
707.51	1650.66
707.70	1685.48
707.89	1642.47
708.08	1755.11
708.27	1744.87
708.46	1689.57
708.65	1660.90
708.84	1804.26
709.02	1695.72
709.21	1667.05
709.40	1748.97
709.59	1730.53
709.78	1703.91
709.97	1724.39
710.16	1683.43
710.34	1693.67
710.53	1767.40
710.72	1673.19
710.91	1757.16
711.10	1617.90
711.29	1677.29
711.48	1697.77
711.66	1683.43
711.85	1753.06
712.04	1689.57
712.23	1685.48
712.42	1759.21
712.61	1654.76
712.80	1720.29
712.98	1632.23
713.17	1632.23
713.36	1781.73
713.55	1847.27
713.74	1699.81
713.93	1837.03
714.11	1667.05
714.30	1603.56
714.49	1710.05
714.68	1724.39
714.87	1595.37
715.06	1875.94
715.24	1761.25
715.43	1695.72
715.62	1761.25
715.81	1677.29
716.00	1705.96
716.18	1687.53
716.37	1746.92
716.56	1767.40
716.75	1753.06
716.94	1681.38
717.12	1728.49
717.31	1677.29
717.50	1673.19
717.69	1667.05
717.88	1740.77
718.06	1646.57
718.25	1732.58
718.44	1638.38
718.63	1738.73
718.82	1581.03
719.00	1654.76
719.19	1863.65
719.38	1708.01
719.57	1769.44
719.76	1697.77
719.94	1728.49
720.13	1732.58
720.32	1822.69
720.51	1654.76
720.69	1724.39
720.88	1812.45
721.07	1728.49
721.26	1712.10
721.44	1650.66
721.63	1712.10
721.82	1687.53
722.01	1728.49
722.20	1789.92
722.38	1728.49
722.57	1611.75
722.76	1648.61
722.95	1607.66
723.13	1703.91
723.32	1679.33
723.51	1712.10
723.70	1697.77
723.88	1826.79
724.07	1626.09
724.26	1761.25
724.44	1638.38
724.63	1839.08
724.82	1662.95
725.01	1697.77
725.19	1736.68
725.38	1814.50
725.57	1628.14
725.76	1777.64
725.94	1685.48
726.13	1693.67
726.32	1746.92
726.51	1634.28
726.69	1667.05
726.88	1691.62
727.07	1607.66
727.25	1738.73
727.44	1708.01
727.63	1724.39
727.82	1691.62
728.00	1605.61
728.19	1701.86
728.38	1665.00
728.56	1624.04
728.75	1755.11
728.94	1765.35
729.12	1751.01
729.31	1654.76
729.50	1748.97
729.69	1789.92
729.87	1763.30
730.06	1650.66
730.25	1738.73
730.43	1744.87
730.62	1656.81
730.81	1621.99
730.99	1708.01
731.18	1675.24
731.37	1703.91
731.55	1691.62
731.74	1687.53
731.93	1720.29
732.11	1746.92
732.30	1654.76
732.49	1683.43
732.67	1669.09
732.86	1662.95
733.05	1634.28
733.23	1748.97
733.42	1642.47
733.61	1583.08
733.79	1658.85
733.98	1708.01
734.17	1597.42
734.35	1699.81
734.54	1710.05
734.73	1830.88
734.91	1601.51
735.10	1689.57
735.29	1740.77
735.47	1683.43
735.66	1621.99
735.84	1779.68
736.03	1621.99
736.22	1734.63
736.40	1675.24
736.59	1558.50
736.78	1632.23
736.96	1640.42
737.15	1787.88
737.33	1755.11
737.52	1691.62
737.71	1695.72
737.89	1755.11
738.08	1685.48
738.27	1683.43
738.45	1744.87
738.64	1722.34
738.82	1693.67
739.01	1728.49
739.20	1705.96
739.38	1814.50
739.57	1753.06
739.75	1736.68
739.94	1732.58
740.13	1634.28
740.31	1753.06
740.50	1779.68
740.68	1558.50
740.87	1687.53
741.06	1748.97
741.24	1712.10
741.43	1738.73
741.61	1701.86
741.80	1650.66
741.99	1722.34
742.17	1722.34
742.36	1648.61
742.54	1648.61
742.73	1773.54
742.91	1660.90
743.10	1724.39
743.29	1757.16
743.47	1781.73
743.66	1644.52
743.84	1640.42
744.03	1769.44
744.21	1654.76
744.40	1740.77
744.59	1714.15
744.77	1691.62
744.96	1740.77
745.14	1626.09
745.33	1589.22
745.51	1720.29
745.70	1660.90
745.88	1683.43
746.07	1734.63
746.26	1646.57
746.44	1632.23
746.63	1605.61
746.81	1703.91
747.00	1714.15
747.18	1665.00
747.37	1609.70
747.55	1777.64
747.74	1933.28
747.92	1621.99
748.11	1787.88
748.29	1648.61
748.48	1724.39
748.66	1570.79
748.85	1714.15
749.03	1691.62
749.22	1621.99
749.41	1728.49
749.59	1716.20
749.78	1726.44
749.96	1607.66
750.15	1681.38
750.33	1732.58
750.52	1650.66
750.70	1691.62
750.89	1701.86
751.07	1638.38
751.26	1714.15
751.44	1609.70
751.63	1728.49
751.81	1691.62
752.00	1642.47
752.18	1683.43
752.37	1746.92
752.55	1701.86
752.74	1591.27
752.92	1722.34
753.10	1648.61
753.29	1662.95
753.47	1744.87
753.66	1589.22
753.84	1638.38
754.03	1632.23
754.21	1734.63
754.40	1693.67
754.58	1748.97
754.77	1720.29
754.95	1804.26
755.14	1783.78
755.32	1730.53
755.51	1624.04
755.69	1681.38
755.88	1589.22
756.06	1857.51
756.24	1697.77
756.43	1681.38
756.61	1665.00
756.80	1648.61
756.98	1703.91
757.17	1724.39
757.35	1726.44
757.54	1652.71
757.72	1730.53
757.90	1687.53
758.09	1705.96
758.27	1677.29
758.46	1667.05
758.64	1767.40
758.83	1806.31
759.01	1765.35
759.19	1806.31
759.38	1712.10
759.56	1765.35
759.75	1667.05
759.93	1738.73
760.12	1617.90
760.30	1673.19
760.48	1687.53
760.67	1740.77
760.85	1656.81
761.04	1708.01
761.22	1652.71
761.40	1718.25
761.59	1693.67
761.77	1601.51
761.96	1677.29
762.14	1683.43
762.32	1740.77
762.51	1695.72
762.69	1714.15
762.88	1724.39
763.06	1652.71
763.24	1613.80
763.43	1695.72
763.61	1630.18
763.80	1685.48
763.98	1769.44
764.16	1624.04
764.35	1607.66
764.53	1607.66
764.72	1689.57
764.90	1681.38
765.08	1675.24
765.27	1837.03
765.45	1634.28
765.63	1615.85
765.82	1642.47
766.00	1648.61
766.18	1695.72
766.37	1662.95
766.55	1710.05
766.74	1710.05
766.92	1644.52
767.10	1705.96
767.29	1755.11
767.47	1687.53
767.65	1712.10
767.84	1755.11
768.02	1757.16
768.20	1720.29
768.39	1710.05
768.57	1642.47
768.75	1570.79
768.94	1832.93
769.12	1617.90
769.30	1691.62
769.49	1722.34
769.67	1669.09
769.85	1845.22
770.04	1742.82
770.22	1650.66
770.40	1689.57
770.59	1652.71
770.77	1785.83
770.95	1726.44
771.14	1689.57
771.32	1658.85
771.50	1583.08
771.69	1615.85
771.87	1650.66
772.05	1662.95
772.24	1652.71
772.42	1693.67
772.60	1689.57
772.78	1716.20
772.97	1607.66
773.15	1722.34
773.33	1679.33
773.52	1599.46
773.70	1740.77
773.88	1691.62
774.07	1621.99
774.25	1638.38
774.43	1656.81
774.61	1665.00
774.80	1656.81
774.98	1708.01
775.16	1665.00
775.34	1626.09
775.53	1761.25
775.71	1740.77
775.89	1687.53
776.08	1648.61
776.26	1716.20
776.44	1685.48
776.62	1708.01
776.81	1601.51
776.99	1773.54
777.17	1607.66
777.35	1712.10
777.54	1798.12
777.72	1724.39
777.90	1599.46
778.08	1673.19
778.27	1687.53
778.45	1658.85
778.63	1699.81
778.81	1708.01
779.00	1693.67
779.18	1708.01
779.36	1824.74
779.54	1660.90
779.73	1708.01
779.91	1644.52
780.09	1679.33
780.27	1667.05
780.46	1720.29
780.64	1626.09
780.82	1699.81
781.00	1687.53
781.19	1613.80
781.37	1667.05
781.55	1734.63
781.73	1681.38
781.91	1662.95
782.10	1746.92
782.28	1767.40
782.46	1697.77
782.64	1781.73
782.82	1691.62
783.01	1673.19
783.19	1812.45
783.37	1742.82
783.55	1673.19
783.74	1701.86
783.92	1626.09
784.10	1722.34
784.28	1789.92
784.46	1699.81
784.64	1652.71
784.83	1693.67
785.01	1810.40
785.19	1839.08
785.37	1769.44
785.55	1667.05
785.74	1689.57
785.92	1722.34
786.10	1687.53
786.28	1748.97
786.46	1753.06
786.64	1658.85
786.83	1621.99
787.01	1685.48
787.19	1808.36
787.37	1736.68
787.55	1617.90
787.74	1742.82
787.92	1703.91
788.10	1736.68
788.28	1683.43
788.46	1722.34
788.64	1693.67
788.82	1658.85
789.01	1613.80
789.19	1779.68
789.37	1742.82
789.55	1726.44
789.73	1703.91
789.91	1730.53
790.09	1693.67
790.28	1673.19
790.46	1609.70
790.64	1658.85
790.82	1581.03
791.00	1568.74
791.18	1761.25
791.36	1677.29
791.55	1708.01
791.73	1599.46
791.91	1624.04
792.09	1658.85
792.27	1630.18
792.45	1746.92
792.63	1720.29
792.81	1685.48
793.00	1642.47
793.18	1716.20
793.36	1722.34
793.54	1673.19
793.72	1640.42
793.90	1685.48
794.08	1626.09
794.26	1712.10
794.44	1589.22
794.62	1691.62
794.81	1587.18
794.99	1665.00
795.17	1791.97
795.35	1656.81
795.53	1609.70
795.71	1738.73
795.89	1603.56
796.07	1681.38
796.25	1697.77
796.43	1744.87
796.61	1744.87
796.80	1656.81
796.98	1601.51
797.16	1748.97
797.34	1691.62
797.52	1585.13
797.70	1716.20
797.88	1769.44
798.06	1581.03
798.24	1712.10
798.42	1714.15
798.60	1679.33
798.78	1718.25
798.96	1781.73
799.14	1654.76
799.32	1755.11
799.51	1613.80
799.69	1732.58
799.87	1773.54
800.05	1699.81
800.23	1634.28
800.41	1732.58
800.59	1728.49
800.77	1601.51
800.95	1640.42
801.13	1728.49
801.31	1603.56
801.49	1781.73
801.67	1675.24
801.85	1595.37
802.03	1613.80
802.21	1656.81
802.39	1597.42
802.57	1685.48
802.75	1787.88
802.93	1773.54
803.11	1679.33
803.29	1724.39
803.47	1703.91
803.65	1619.94
803.83	1656.81
804.01	1736.68
804.19	1708.01
804.37	1646.57
804.55	1630.18
804.73	1763.30
804.91	1599.46
805.09	1712.10
805.27	1693.67
805.45	1646.57
805.63	1681.38
805.81	1744.87
805.99	1705.96
806.17	1695.72
806.35	1538.02
806.53	1705.96
806.71	1701.86
806.89	1728.49
807.07	1744.87
807.25	1726.44
807.43	1587.18
807.61	1738.73
807.79	1689.57
807.97	1632.23
808.15	1714.15
808.33	1675.24
808.51	1744.87
808.69	1648.61
808.87	1585.13
809.05	1621.99
809.23	1621.99
809.41	1578.98
809.59	1603.56
809.77	1765.35
809.95	1710.05
810.13	1697.77
810.31	1677.29
810.49	1744.87
810.67	1652.71
810.84	1644.52
811.02	1662.95
811.20	1611.75
811.38	1761.25
811.56	1609.70
811.74	1744.87
811.92	1615.85
812.10	1648.61
812.28	1665.00
812.46	1683.43
812.64	1689.57
812.82	1644.52
813.00	1695.72
813.18	1572.84
813.36	1654.76
813.53	1652.71
813.71	1789.92
813.89	1687.53
814.07	1630.18
814.25	1728.49
814.43	1632.23
814.61	1591.27
814.79	1708.01
814.97	1724.39
815.15	1699.81
815.33	1605.61
815.50	1624.04
815.68	1644.52
815.86	1748.97
816.04	1708.01
816.22	1599.46
816.40	1724.39
816.58	1597.42
816.76	1548.26
816.94	1652.71
817.11	1626.09
817.29	1636.33
817.47	1716.20
817.65	1607.66
817.83	1714.15
818.01	1646.57
818.19	1542.12
818.37	1619.94
818.54	1728.49
818.72	1703.91
818.90	1693.67
819.08	1667.05
819.26	1671.14
819.44	1765.35
819.62	1597.42
819.80	1593.32
819.97	1748.97
820.15	1675.24
820.33	1605.61
820.51	1593.32
820.69	1705.96
820.87	1667.05
821.05	1779.68
821.22	1585.13
821.40	1669.09
821.58	1675.24
821.76	1660.90
821.94	1642.47
822.12	1687.53
822.29	1658.85
822.47	1703.91
822.65	1685.48
822.83	1644.52
823.01	1730.53
823.19	1656.81
823.36	1583.08
823.54	1660.90
823.72	1671.14
823.90	1691.62
824.08	1568.74
824.25	1658.85
824.43	1650.66
824.61	1615.85
824.79	1677.29
824.97	1589.22
825.15	1697.77
825.32	1626.09
825.50	1685.48
825.68	1583.08
825.86	1677.29
826.04	1619.94
826.21	1701.86
826.39	1636.33
826.57	1671.14
826.75	1744.87
826.93	1646.57
827.10	1765.35
827.28	1583.08
827.46	1699.81
827.64	1724.39
827.81	1665.00
827.99	1648.61
828.17	1660.90
828.35	1591.27
828.53	1597.42
828.70	1763.30
828.88	1693.67
829.06	1654.76
829.24	1585.13
829.41	1699.81
829.59	1685.48
829.77	1681.38
829.95	1669.09
830.12	1587.18
830.30	1712.10
830.48	1605.61
830.66	1634.28
830.84	1648.61
831.01	1777.64
831.19	1560.55
831.37	1746.92
831.55	1712.10
831.72	1732.58
831.90	1740.77
832.08	1691.62
832.25	1609.70
832.43	1740.77
832.61	1736.68
832.79	1636.33
832.96	1701.86
833.14	1775.59
833.32	1693.67
833.50	1585.13
833.67	1671.14
833.85	1617.90
834.03	1499.11
834.20	1667.05
834.38	1816.55
834.56	1691.62
834.74	1587.18
834.91	1566.70
835.09	1650.66
835.27	1648.61
835.44	1638.38
835.62	1640.42
835.80	1587.18
835.98	1591.27
836.15	1714.15
836.33	1689.57
836.51	1548.26
836.68	1581.03
836.86	1609.70
837.04	1734.63
837.21	1759.21
837.39	1708.01
837.57	1769.44
837.75	1640.42
837.92	1687.53
838.10	1619.94
838.28	1576.94
838.45	1599.46
838.63	1613.80
838.81	1701.86
838.98	1751.01
839.16	1732.58
839.34	1720.29
839.51	1728.49
839.69	1617.90
839.87	1619.94
840.04	1722.34
840.22	1920.99
840.40	1710.05
840.57	1576.94
840.75	1650.66
840.93	1609.70
841.10	1650.66
841.28	1738.73
841.46	1677.29
841.63	1658.85
841.81	1581.03
841.98	1656.81
842.16	1697.77
842.34	1744.87
842.51	1517.54
842.69	1697.77
842.87	1591.27
843.04	1648.61
843.22	1560.55
843.40	1558.50
843.57	1591.27
843.75	1619.94
843.92	1667.05
844.10	1716.20
844.28	1644.52
844.45	1658.85
844.63	1679.33
844.81	1667.05
844.98	1755.11
845.16	1740.77
845.33	1701.86
845.51	1595.37
845.69	1714.15
845.86	1732.58
846.04	1609.70
846.21	1683.43
846.39	1595.37
846.57	1648.61
846.74	1585.13
846.92	1708.01
847.09	1722.34
847.27	1675.24
847.45	1662.95
847.62	1675.24
847.80	1673.19
847.97	1699.81
848.15	1634.28
848.32	1646.57
848.50	1683.43
848.68	1677.29
848.85	1640.42
849.03	1593.32
849.20	1587.18
849.38	1597.42
849.56	1675.24
849.73	1599.46
849.91	1671.14
850.08	1675.24
850.26	1421.29
850.43	1642.47
850.61	1730.53
850.78	1535.98
850.96	1648.61
851.14	1572.84
851.31	1794.02
851.49	1679.33
851.66	1703.91
851.84	1628.14
852.01	1716.20
852.19	1644.52
852.36	1648.61
852.54	1640.42
852.71	1624.04
852.89	1701.86
853.07	1716.20
853.24	1607.66
853.42	1677.29
853.59	1662.95
853.77	1587.18
853.94	1652.71
854.12	1654.76
854.29	1540.07
854.47	1626.09
854.64	1681.38
854.82	1662.95
854.99	1789.92
855.17	1673.19
855.34	1603.56
855.52	1679.33
855.69	1738.73
855.87	1646.57
856.04	1628.14
856.22	1724.39
856.39	1634.28
856.57	1656.81
856.74	1601.51
856.92	1765.35
857.09	1624.04
857.27	1660.90
857.44	1724.39
857.62	1634.28
857.79	1654.76
857.97	1691.62
858.14	1601.51
858.32	1650.66
858.49	1683.43
858.67	1644.52
858.84	1638.38
859.02	1744.87
859.19	1691.62
859.37	1560.55
859.54	1605.61
859.72	1562.60
859.89	1691.62
860.06	1583.08
860.24	1581.03
860.41	1636.33
860.59	1591.27
860.76	1705.96
860.94	1568.74
861.11	1693.67
861.29	1726.44
861.46	1630.18
861.64	1671.14
861.81	1730.53
861.98	1648.61
862.16	1642.47
862.33	1587.18
862.51	1599.46
862.68	1658.85
862.86	1669.09
863.03	1566.70
863.21	1583.08
863.38	1589.22
863.55	1591.27
863.73	1597.42
863.90	1671.14
864.08	1654.76
864.25	1603.56
864.43	1687.53
864.60	1658.85
864.77	1634.28
864.95	1689.57
865.12	1658.85
865.30	1746.92
865.47	1689.57
865.64	1748.97
865.82	1667.05
865.99	1798.12
866.17	1720.29
866.34	1687.53
866.51	1554.41
866.69	1587.18
866.86	1740.77
867.04	1705.96
867.21	1714.15
867.38	1658.85
867.56	1712.10
867.73	1730.53
867.91	1665.00
868.08	1574.89
868.25	1605.61
868.43	1617.90
868.60	1652.71
868.78	1540.07
868.95	1671.14
869.12	1740.77
869.30	1607.66
869.47	1628.14
869.64	1626.09
869.82	1601.51
869.99	1648.61
870.16	1724.39
870.34	1726.44
870.51	1779.68
870.69	1654.76
870.86	1619.94
871.03	1636.33
871.21	1605.61
871.38	1669.09
871.55	1677.29
871.73	1574.89
871.90	1628.14
872.07	1640.42
872.25	1626.09
872.42	1560.55
872.59	1587.18
872.77	1617.90
872.94	1646.57
873.11	1624.04
873.29	1720.29
873.46	1658.85
873.63	1687.53
873.81	1574.89
873.98	1732.58
874.15	1611.75
874.33	1615.85
874.50	1675.24
874.67	1660.90
874.85	1609.70
875.02	1636.33
875.19	1570.79
875.37	1677.29
875.54	1621.99
875.71	1710.05
875.88	1687.53
876.06	1640.42
876.23	1634.28
876.40	1609.70
876.58	1697.77
876.75	1689.57
876.92	1605.61
877.10	1566.70
877.27	1667.05
877.44	1683.43
877.61	1673.19
877.79	1724.39
877.96	1634.28
878.13	1685.48
878.31	1671.14
878.48	1570.79
878.65	1738.73
878.82	1648.61
879.00	1601.51
879.17	1703.91
879.34	1581.03
879.51	1591.27
879.69	1572.84
879.86	1568.74
880.03	1636.33
880.21	1652.71
880.38	1679.33
880.55	1802.21
880.72	1679.33
880.90	1548.26
881.07	1568.74
881.24	1708.01
881.41	1626.09
881.59	1626.09
881.76	1667.05
881.93	1724.39
882.10	1648.61
882.28	1564.65
882.45	1679.33
882.62	1691.62
882.79	1654.76
882.96	1603.56
883.14	1697.77
883.31	1665.00
883.48	1576.94
883.65	1673.19
883.83	1650.66
884.00	1673.19
884.17	1613.80
884.34	1683.43
884.51	1658.85
884.69	1691.62
884.86	1658.85
885.03	1619.94
885.20	1538.02
885.38	1667.05
885.55	1630.18
885.72	1624.04
885.89	1611.75
886.06	1689.57
886.24	1626.09
886.41	1638.38
886.58	1738.73
886.75	1716.20
886.92	1605.61
887.10	1609.70
887.27	1630.18
887.44	1861.60
887.61	1810.40
887.78	1697.77
887.95	1708.01
888.13	1640.42
888.30	1544.17
888.47	1648.61
888.64	1755.11
888.81	1705.96
888.99	1615.85
889.16	1607.66
889.33	1630.18
889.50	1658.85
889.67	1603.56
889.84	1716.20
890.01	1734.63
890.19	1673.19
890.36	1667.05
890.53	1753.06
890.70	1601.51
890.87	1683.43
891.04	1617.90
891.22	1665.00
891.39	1564.65
891.56	1632.23
891.73	1673.19
891.90	1613.80
892.07	1560.55
892.24	1748.97
892.42	1658.85
892.59	1667.05
892.76	1722.34
892.93	1578.98
893.10	1621.99
893.27	1681.38
893.44	1470.44
893.61	1665.00
893.79	1669.09
893.96	1634.28
894.13	1597.42
894.30	1585.13
894.47	1697.77
894.64	1675.24
894.81	1595.37
894.98	1638.38
895.15	1675.24
895.33	1656.81
895.50	1628.14
895.67	1599.46
895.84	1718.25
896.01	1642.47
896.18	1546.22
896.35	1798.12
896.52	1601.51
896.69	1613.80
896.86	1636.33
897.04	1746.92
897.21	1607.66
897.38	1665.00
897.55	1675.24
897.72	1658.85
897.89	1656.81
898.06	1748.97
898.23	1601.51
898.40	1675.24
898.57	1691.62
898.74	1683.43
898.91	1617.90
899.08	1689.57
899.26	1714.15
899.43	1677.29
899.60	1601.51
899.77	1703.91
899.94	1605.61
900.11	1648.61
900.28	1601.51
900.45	1642.47
900.62	1626.09
900.79	1667.05
900.96	1656.81
901.13	1615.85
901.30	1581.03
901.47	1570.79
901.64	1626.09
901.81	1740.77
901.98	1673.19
902.15	1654.76
902.32	1542.12
902.49	1695.72
902.66	1716.20
902.83	1640.42
903.01	1626.09
903.18	1619.94
903.35	1636.33
903.52	1558.50
903.69	1728.49
903.86	1642.47
904.03	1636.33
904.20	1695.72
904.37	1732.58
904.54	1519.59
904.71	1605.61
904.88	1712.10
905.05	1525.74
905.22	1638.38
905.39	1556.46
905.56	1527.78
905.73	1482.73
905.90	1638.38
906.07	1658.85
906.24	1701.86
906.41	1566.70
906.58	1787.88
906.75	1609.70
906.92	1585.13
907.09	1585.13
907.26	1658.85
907.43	1527.78
907.60	1712.10
907.77	1705.96
907.93	1667.05
908.10	1609.70
908.27	1695.72
908.44	1589.22
908.61	1615.85
908.78	1591.27
908.95	1687.53
909.12	1658.85
909.29	1660.90
909.46	1646.57
909.63	1753.06
909.80	1597.42
909.97	1621.99
910.14	1587.18
910.31	1619.94
910.48	1609.70
910.65	1601.51
910.82	1636.33
910.99	1679.33
911.16	1708.01
911.33	1597.42
911.50	1644.52
911.66	1646.57
911.83	1767.40
912.00	1669.09
912.17	1517.54
912.34	1591.27
912.51	1665.00
912.68	1619.94
912.85	1667.05
913.02	1705.96
913.19	1576.94
913.36	1683.43
913.53	1718.25
913.70	1630.18
913.86	1718.25
914.03	1701.86
914.20	1720.29
914.37	1669.09
914.54	1576.94
914.71	1632.23
914.88	1652.71
915.05	1609.70
915.22	1576.94
915.39	1712.10
915.55	1609.70
915.72	1599.46
915.89	1619.94
916.06	1572.84
916.23	1587.18
916.40	1703.91
916.57	1595.37
916.74	1607.66
916.91	1722.34
917.07	1701.86
917.24	1587.18
917.41	1644.52
917.58	1730.53
917.75	1613.80
917.92	1501.16
918.09	1576.94
918.26	1656.81
918.42	1642.47
918.59	1658.85
918.76	1601.51
918.93	1548.26
919.10	1650.66
919.27	1605.61
919.44	1722.34
919.60	1736.68
919.77	1595.37
919.94	1613.80
920.11	1613.80
920.28	1751.01
920.45	1621.99
920.61	1546.22
920.78	1724.39
920.95	1667.05
921.12	1708.01
921.29	1597.42
921.46	1624.04
921.62	1624.04
921.79	1662.95
921.96	1671.14
922.13	1646.57
922.30	1634.28
922.47	1601.51
922.63	1673.19
922.80	1656.81
922.97	1583.08
923.14	1566.70
923.31	1644.52
923.47	1626.09
923.64	1767.40
923.81	1619.94
923.98	1800.16
924.15	1558.50
924.32	1626.09
924.48	1656.81
924.65	1691.62
924.82	1556.46
924.99	1650.66
925.15	1585.13
925.32	1769.44
925.49	1564.65
925.66	1697.77
925.83	1652.71
925.99	1595.37
926.16	1789.92
926.33	1708.01
926.50	1576.94
926.67	1558.50
926.83	1585.13
927.00	1699.81
927.17	1605.61
927.34	1609.70
927.50	1660.90
927.67	1839.08
927.84	1703.91
928.01	1658.85
928.17	1744.87
928.34	1634.28
928.51	1642.47
928.68	1560.55
928.84	1617.90
929.01	1673.19
929.18	1642.47
929.35	1699.81
929.51	1617.90
929.68	1658.85
929.85	1640.42
930.02	1671.14
930.18	1591.27
930.35	1714.15
930.52	1679.33
930.69	1693.67
930.85	1724.39
931.02	1529.83
931.19	1685.48
931.36	1611.75
931.52	1617.90
931.69	1687.53
931.86	1660.90
932.02	1658.85
932.19	1591.27
932.36	1716.20
932.53	1667.05
932.69	1576.94
932.86	1789.92
933.03	1556.46
933.19	1515.50
933.36	1636.33
933.53	1744.87
933.70	1632.23
933.86	1654.76
934.03	1636.33
934.20	1689.57
934.36	1705.96
934.53	1548.26
934.70	1562.60
934.86	1677.29
935.03	1572.84
935.20	1669.09
935.36	1628.14
935.53	1544.17
935.70	1613.80
935.86	1658.85
936.03	1548.26
936.20	1568.74
936.36	1648.61
936.53	1697.77
936.70	1722.34
936.86	1765.35
937.03	1669.09
937.20	1574.89
937.36	1632.23
937.53	1507.30
937.70	1497.07
937.86	1519.59
938.03	1581.03
938.20	1703.91
938.36	1720.29
938.53	1650.66
938.70	1533.93
938.86	1662.95
939.03	1626.09
939.20	1583.08
939.36	1624.04
939.53	1572.84
939.70	1814.50
939.86	1583.08
940.03	1615.85
940.19	1624.04
940.36	1564.65
940.53	1691.62
940.69	1677.29
940.86	1632.23
941.03	1636.33
941.19	1576.94
941.36	1662.95
941.52	1675.24
941.69	1636.33
941.86	1589.22
942.02	1677.29
942.19	1724.39
942.35	1652.71
942.52	1650.66
942.69	1656.81
942.85	1560.55
943.02	1605.61
943.18	1718.25
943.35	1624.04
943.52	1628.14
943.68	1601.51
943.85	1677.29
944.01	1656.81
944.18	1640.42
944.35	1716.20
944.51	1640.42
944.68	1593.32
944.84	1638.38
945.01	1552.36
945.17	1722.34
945.34	1640.42
945.51	1748.97
945.67	1691.62
945.84	1621.99
946.00	1529.83
946.17	1617.90
946.33	1556.46
946.50	1589.22
946.67	1683.43
946.83	1634.28
947.00	1691.62
947.16	1636.33
947.33	1568.74
947.49	1593.32
947.66	1581.03
947.82	1638.38
947.99	1535.98
948.16	1658.85
948.32	1560.55
948.49	1638.38
948.65	1654.76
948.82	1667.05
948.98	1703.91
949.15	1585.13
949.31	1660.90
949.48	1599.46
949.64	1558.50
949.81	1613.80
949.97	1591.27
950.14	1632.23
950.30	1611.75
950.47	1693.67
950.63	1593.32
950.80	1599.46
950.96	1679.33
951.13	1603.56
951.30	1714.15
951.46	1648.61
951.63	1689.57
951.79	1744.87
951.96	1679.33
952.12	1644.52
952.29	1656.81
952.45	1662.95
952.62	1654.76
952.78	1628.14
952.94	1566.70
953.11	1583.08
953.27	1490.92
953.44	1720.29
953.60	1570.79
953.77	1632.23
953.93	1605.61
954.10	1685.48
954.26	1675.24
954.43	1552.36
954.59	1720.29
954.76	1730.53
954.92	1593.32
955.09	1693.67
955.25	1519.59
955.42	1533.93
955.58	1736.68
955.75	1603.56
955.91	1603.56
956.07	1595.37
956.24	1662.95
956.40	1695.72
956.57	1675.24
956.73	1626.09
956.90	1644.52
957.06	1587.18
957.23	1587.18
957.39	1640.42
957.56	1650.66
957.72	1476.59
957.88	1581.03
958.05	1687.53
958.21	1683.43
958.38	1601.51
958.54	1624.04
958.71	1748.97
958.87	1521.64
959.03	1626.09
959.20	1699.81
959.36	1589.22
959.53	1572.84
959.69	1628.14
959.85	1687.53
960.02	1540.07
960.18	1628.14
960.35	1562.60
960.51	1685.48
960.68	1566.70
960.84	1621.99
961.00	1568.74
961.17	1589.22
961.33	1621.99
961.50	1576.94
961.66	1658.85
961.82	1605.61
961.99	1611.75
962.15	1560.55
962.31	1624.04
962.48	1646.57
962.64	1679.33
962.81	1681.38
962.97	1617.90
963.13	1673.19
963.30	1601.51
963.46	1626.09
963.62	1550.31
963.79	1597.42
963.95	1615.85
964.12	1634.28
964.28	1652.71
964.44	1529.83
964.61	1703.91
964.77	1587.18
964.93	1716.20
965.10	1646.57
965.26	1558.50
965.42	1585.13
965.59	1583.08
965.75	1619.94
965.92	1673.19
966.08	1695.72
966.24	1613.80
966.41	1578.98
966.57	1650.66
966.73	1718.25
966.90	1634.28
967.06	1615.85
967.22	1615.85
967.39	1656.81
967.55	1617.90
967.71	1652.71
967.88	1576.94
968.04	1583.08
968.20	1556.46
968.37	1603.56
968.53	1523.69
968.69	1646.57
968.85	1656.81
969.02	1574.89
969.18	1712.10
969.34	1703.91
969.51	1648.61
969.67	1669.09
969.83	1560.55
970.00	1671.14
970.16	1654.76
970.32	1605.61
970.48	1708.01
970.65	1636.33
970.81	1564.65
970.97	1548.26
971.14	1548.26
971.30	1693.67
971.46	1613.80
971.63	1648.61
971.79	1703.91
971.95	1654.76
972.11	1683.43
972.28	1581.03
972.44	1662.95
972.60	1617.90
972.76	1617.90
972.93	1589.22
973.09	1679.33
973.25	1646.57
973.42	1591.27
973.58	1665.00
973.74	1652.71
973.90	1679.33
974.07	1632.23
974.23	1640.42
974.39	1671.14
974.55	1583.08
974.72	1613.80
974.88	1503.21
975.04	1722.34
975.20	1652.71
975.37	1710.05
975.53	1548.26
975.69	1710.05
975.85	1648.61
976.01	1597.42
976.18	1583.08
976.34	1607.66
976.50	1736.68
976.66	1722.34
976.83	1662.95
976.99	1648.61
977.15	1615.85
977.31	1533.93
977.47	1671.14
977.64	1650.66
977.80	1609.70
977.96	1734.63
978.12	1671.14
978.29	1574.89
978.45	1544.17
978.61	1601.51
978.77	1695.72
978.93	1605.61
979.10	1624.04
979.26	1628.14
979.42	1587.18
979.58	1576.94
979.74	1525.74
979.91	1712.10
980.07	1581.03
980.23	1533.93
980.39	1595.37
980.55	1599.46
980.71	1587.18
980.88	1578.98
981.04	1554.41
981.20	1640.42
981.36	1701.86
981.52	1634.28
981.68	1556.46
981.85	1667.05
982.01	1638.38
982.17	1570.79
982.33	1611.75
982.49	1644.52
982.65	1591.27
982.82	1656.81
982.98	1564.65
983.14	1556.46
983.30	1681.38
983.46	1681.38
983.62	1695.72
983.79	1681.38
983.95	1531.88
984.11	1531.88
984.27	1652.71
984.43	1591.27
984.59	1630.18
984.75	1648.61
984.91	1595.37
985.08	1658.85
985.24	1556.46
985.40	1583.08
985.56	1597.42
985.72	1662.95
985.88	1689.57
986.04	1615.85
986.20	1566.70
986.37	1593.32
986.53	1556.46
986.69	1652.71
986.85	1603.56
987.01	1552.36
987.17	1652.71
987.33	1605.61
987.49	1626.09
987.65	1665.00
987.82	1570.79
987.98	1560.55
988.14	1662.95
988.30	1697.77
988.46	1574.89
988.62	1568.74
988.78	1642.47
988.94	1626.09
989.10	1654.76
989.26	1535.98
989.42	1593.32
989.59	1650.66
989.75	1624.04
989.91	1691.62
990.07	1568.74
990.23	1654.76
990.39	1685.48
990.55	1662.95
990.71	1601.51
990.87	1576.94
991.03	1632.23
991.19	1544.17
991.35	1562.60
991.51	1597.42
991.67	1669.09
991.83	1583.08
992.00	1548.26
992.16	1703.91
992.32	1679.33
992.48	1662.95
992.64	1570.79
992.80	1599.46
992.96	1542.12
993.12	1642.47
993.28	1679.33
993.44	1626.09
993.60	1626.09
993.76	1701.86
993.92	1679.33
994.08	1609.70
994.24	1677.29
994.40	1693.67
994.56	1650.66
994.72	1605.61
994.88	1585.13
995.04	1656.81
995.20	1624.04
995.36	1527.78
995.52	1636.33
995.68	1621.99
995.84	1634.28
996.00	1736.68
996.16	1683.43
996.32	1550.31
996.48	1630.18
996.64	1734.63
996.80	1605.61
996.96	1609.70
997.12	1574.89
997.28	1642.47
997.44	1615.85
997.60	1617.90
997.76	1640.42
997.92	1591.27
998.08	1585.13
998.24	1533.93
998.40	1550.31
998.56	1683.43
998.72	1597.42
998.88	1621.99
999.04	1630.18
999.20	1658.85
999.36	1581.03
999.52	1693.67
999.68	1691.62
999.84	1648.61
1000.00	1589.22
1000.16	1613.80
1000.32	1554.41
1000.48	1748.97
1000.64	1581.03
1000.80	1505.26
1000.95	1521.64
1001.11	1638.38
1001.27	1556.46
1001.43	1677.29
1001.59	1566.70
1001.75	1535.98
1001.91	1628.14
1002.07	1511.40
1002.23	1589.22
1002.39	1626.09
1002.55	1650.66
1002.71	1581.03
1002.87	1566.70
1003.03	1560.55
1003.19	1587.18
1003.34	1642.47
1003.50	1609.70
1003.66	1708.01
1003.82	1650.66
1003.98	1552.36
1004.14	1685.48
1004.30	1632.23
1004.46	1558.50
1004.62	1591.27
1004.78	1628.14
1004.94	1609.70
1005.09	1699.81
1005.25	1593.32
1005.41	1628.14
1005.57	1613.80
1005.73	1517.54
1005.89	1640.42
1006.05	1658.85
1006.21	1632.23
1006.37	1568.74
1006.52	1501.16
1006.68	1550.31
1006.84	1689.57
1007.00	1605.61
1007.16	1703.91
1007.32	1630.18
1007.48	1648.61
1007.64	1638.38
1007.79	1558.50
1007.95	1605.61
1008.11	1632.23
1008.27	1597.42
1008.43	1675.24
1008.59	1603.56
1008.75	1667.05
1008.91	1671.14
1009.06	1595.37
1009.22	1621.99
1009.38	1646.57
1009.54	1626.09
1009.70	1634.28
1009.86	1607.66
1010.01	1699.81
1010.17	1531.88
1010.33	1636.33
1010.49	1544.17
1010.65	1673.19
1010.81	1531.88
1010.96	1673.19
1011.12	1589.22
1011.28	1552.36
1011.44	1568.74
1011.60	1591.27
1011.76	1603.56
1011.91	1681.38
1012.07	1499.11
1012.23	1576.94
1012.39	1538.02
1012.55	1642.47
1012.71	1535.98
1012.86	1566.70
1013.02	1644.52
1013.18	1562.60
1013.34	1607.66
1013.50	1691.62
1013.65	1632.23
1013.81	1511.40
1013.97	1640.42
1014.13	1609.70
1014.29	1589.22
1014.44	1638.38
1014.60	1619.94
1014.76	1636.33
1014.92	1531.88
1015.07	1642.47
1015.23	1617.90
1015.39	1589.22
1015.55	1581.03
1015.71	1693.67
1015.86	1609.70
1016.02	1556.46
1016.18	1525.74
1016.34	1630.18
1016.49	1542.12
1016.65	1695.72
1016.81	1591.27
1016.97	1646.57
1017.12	1644.52
1017.28	1564.65
1017.44	1603.56
1017.60	1568.74
1017.75	1581.03
1017.91	1617.90
1018.07	1673.19
1018.23	1650.66
1018.38	1552.36
1018.54	1671.14
1018.70	1562.60
1018.86	1548.26
1019.01	1589.22
1019.17	1605.61
1019.33	1732.58
1019.49	1697.77
1019.64	1589.22
1019.80	1562.60
1019.96	1601.51
1020.12	1607.66
1020.27	1568.74
1020.43	1636.33
1020.59	1589.22
1020.74	1617.90
1020.90	1656.81
1021.06	1634.28
1021.22	1654.76
1021.37	1683.43
1021.53	1509.35
1021.69	1681.38
1021.84	1558.50
1022.00	1699.81
1022.16	1597.42
1022.31	1660.90
1022.47	1628.14
1022.63	1681.38
1022.79	1533.93
1022.94	1644.52
1023.10	1652.71
1023.26	1587.18
1023.41	1576.94
1023.57	1564.65
1023.73	1601.51
1023.88	1638.38
1024.04	1550.31
1024.20	1564.65
1024.35	1665.00
1024.51	1691.62
1024.67	1542.12
1024.82	1767.40
1024.98	1603.56
1025.14	1658.85
1025.29	1654.76
1025.45	1685.48
1025.61	1617.90
1025.76	1591.27
1025.92	1601.51
1026.08	1609.70
1026.23	1617.90
1026.39	1720.29
1026.55	1550.31
1026.70	1574.89
1026.86	1613.80
1027.02	1722.34
1027.17	1593.32
1027.33	1628.14
1027.48	1665.00
1027.64	1640.42
1027.80	1556.46
1027.95	1638.38
1028.11	1566.70
1028.27	1681.38
1028.42	1597.42
1028.58	1599.46
1028.73	1621.99
1028.89	1531.88
1029.05	1712.10
1029.20	1677.29
>>>>>End Processed Spectral Data<<<<<
