SpectraSuite Data File
++++++++++++++++++++++++++++++++++++
Date: Fri Jun 02 14:49:23 CEST 2017
User: INFO_000
Dark Spectrum Present: No
Reference Spectrum Present: No
Number of Sampled Component Spectra: 1
Spectrometers: USB4H00879
Integration Time (usec): 80000 (USB4H00879)
Spectra Averaged: 1 (USB4H00879)
Boxcar Smoothing: 0 (USB4H00879)
Correct for Electrical Dark: No (USB4H00879)
Strobe/Lamp Enabled: No (USB4H00879)
Correct for Detector Non-linearity: No (USB4H00879)
Correct for Stray Light: No (USB4H00879)
Number of Pixels in Processed Spectrum: 3648
>>>>>Begin Processed Spectral Data<<<<<
345.13	1271.79
345.34	1271.79
345.56	1271.79
345.78	1273.84
345.99	1331.18
346.21	1755.11
346.42	1665.00
346.64	1675.24
346.86	1738.73
347.07	1656.81
347.29	1728.49
347.50	1560.55
347.72	1681.38
347.94	1814.50
348.15	1595.37
348.37	1646.57
348.59	1626.09
348.80	1621.99
349.02	1699.81
349.23	1710.05
349.45	1710.05
349.67	1755.11
349.88	1732.58
350.10	1843.17
350.31	1705.96
350.53	1771.49
350.75	1810.40
350.96	1705.96
351.18	1699.81
351.39	1695.72
351.61	1691.62
351.82	1759.21
352.04	1757.16
352.26	1660.90
352.47	1810.40
352.69	1699.81
352.90	1654.76
353.12	1708.01
353.34	1671.14
353.55	1708.01
353.77	1748.97
353.98	1695.72
354.20	1585.13
354.41	1785.83
354.63	1751.01
354.85	1845.22
355.06	1773.54
355.28	1593.32
355.49	1744.87
355.71	1724.39
355.92	1667.05
356.14	1761.25
356.35	1712.10
356.57	1730.53
356.79	1746.92
357.00	1648.61
357.22	1744.87
357.43	1669.09
357.65	1837.03
357.86	1638.38
358.08	1665.00
358.29	1722.34
358.51	1820.64
358.72	1730.53
358.94	1691.62
359.16	1695.72
359.37	1759.21
359.59	1675.24
359.80	1705.96
360.02	1705.96
360.23	1753.06
360.45	1787.88
360.66	1669.09
360.88	1683.43
361.09	1640.42
361.31	1712.10
361.52	1689.57
361.74	1816.55
361.95	1814.50
362.17	1708.01
362.38	1812.45
362.60	1777.64
362.81	1722.34
363.03	1660.90
363.24	1671.14
363.46	1746.92
363.67	1695.72
363.89	1728.49
364.10	1759.21
364.32	1658.85
364.53	1765.35
364.75	1552.36
364.96	1734.63
365.18	1656.81
365.39	1689.57
365.61	1646.57
365.82	1875.94
366.04	1675.24
366.25	1589.22
366.47	1712.10
366.68	1796.07
366.90	1687.53
367.11	1800.16
367.33	1746.92
367.54	1789.92
367.76	1699.81
367.97	1755.11
368.19	1699.81
368.40	1787.88
368.62	1693.67
368.83	1607.66
369.05	1791.97
369.26	1681.38
369.48	1697.77
369.69	1630.18
369.91	1646.57
370.12	1617.90
370.33	1800.16
370.55	1652.71
370.76	1687.53
370.98	1787.88
371.19	1691.62
371.41	1654.76
371.62	1611.75
371.84	1687.53
372.05	1847.27
372.27	1705.96
372.48	1691.62
372.69	1726.44
372.91	1705.96
373.12	1794.02
373.34	1687.53
373.55	1714.15
373.77	1777.64
373.98	1658.85
374.20	1716.20
374.41	1787.88
374.62	1712.10
374.84	1734.63
375.05	1777.64
375.27	1744.87
375.48	1712.10
375.70	1695.72
375.91	1791.97
376.12	1820.64
376.34	1714.15
376.55	1699.81
376.77	1771.49
376.98	1652.71
377.19	1642.47
377.41	1658.85
377.62	1757.16
377.84	1736.68
378.05	1789.92
378.27	1665.00
378.48	1828.84
378.69	1773.54
378.91	1761.25
379.12	1681.38
379.34	1640.42
379.55	1736.68
379.76	1751.01
379.98	1699.81
380.19	1738.73
380.41	1683.43
380.62	1699.81
380.83	1701.86
381.05	1613.80
381.26	1843.17
381.47	1644.52
381.69	1716.20
381.90	1777.64
382.12	1773.54
382.33	1675.24
382.54	1744.87
382.76	1689.57
382.97	1722.34
383.19	1642.47
383.40	1769.44
383.61	1732.58
383.83	1619.94
384.04	1730.53
384.25	1728.49
384.47	1798.12
384.68	1662.95
384.89	1630.18
385.11	1636.33
385.32	1695.72
385.54	1673.19
385.75	1673.19
385.96	1744.87
386.18	1685.48
386.39	1753.06
386.60	1609.70
386.82	1710.05
387.03	1624.04
387.24	1742.82
387.46	1724.39
387.67	1828.84
387.88	1779.68
388.10	1689.57
388.31	1662.95
388.52	1728.49
388.74	1740.77
388.95	1677.29
389.16	1652.71
389.38	1593.32
389.59	1746.92
389.80	1806.31
390.02	1632.23
390.23	1769.44
390.44	1699.81
390.66	1613.80
390.87	1658.85
391.08	1796.07
391.30	1736.68
391.51	1701.86
391.72	1802.21
391.94	1699.81
392.15	1710.05
392.36	1628.14
392.58	1691.62
392.79	1710.05
393.00	1722.34
393.22	1642.47
393.43	1791.97
393.64	1802.21
393.85	1773.54
394.07	1667.05
394.28	1630.18
394.49	1681.38
394.71	1748.97
394.92	1740.77
395.13	1615.85
395.35	1685.48
395.56	1724.39
395.77	1742.82
395.98	1757.16
396.20	1738.73
396.41	1708.01
396.62	1710.05
396.84	1708.01
397.05	1685.48
397.26	1665.00
397.47	1781.73
397.69	1603.56
397.90	1828.84
398.11	1773.54
398.32	1656.81
398.54	1748.97
398.75	1691.62
398.96	1699.81
399.18	1822.69
399.39	1740.77
399.60	1822.69
399.81	1667.05
400.03	1636.33
400.24	1949.67
400.45	1695.72
400.66	1744.87
400.88	1568.74
401.09	1828.84
401.30	1693.67
401.51	1781.73
401.73	1720.29
401.94	1783.78
402.15	1621.99
402.36	1855.46
402.58	1705.96
402.79	1812.45
403.00	1724.39
403.21	1748.97
403.43	1773.54
403.64	1753.06
403.85	1640.42
404.06	1773.54
404.27	1581.03
404.49	1718.25
404.70	1609.70
404.91	1802.21
405.12	1718.25
405.34	1761.25
405.55	1871.84
405.76	1605.61
405.97	1667.05
406.19	1828.84
406.40	1599.46
406.61	1683.43
406.82	1660.90
407.03	1683.43
407.25	1599.46
407.46	1834.98
407.67	1759.21
407.88	1800.16
408.09	1744.87
408.31	1681.38
408.52	1712.10
408.73	1728.49
408.94	1679.33
409.15	1679.33
409.37	1814.50
409.58	1722.34
409.79	1681.38
410.00	1781.73
410.21	1703.91
410.43	1673.19
410.64	1578.98
410.85	1728.49
411.06	1712.10
411.27	1763.30
411.48	1789.92
411.70	1697.77
411.91	1761.25
412.12	1777.64
412.33	1783.78
412.54	1630.18
412.76	1810.40
412.97	1816.55
413.18	1722.34
413.39	1763.30
413.60	1748.97
413.81	1767.40
414.03	1708.01
414.24	1742.82
414.45	1871.84
414.66	1605.61
414.87	1705.96
415.08	1689.57
415.30	1716.20
415.51	1736.68
415.72	1748.97
415.93	1667.05
416.14	1718.25
416.35	1693.67
416.56	1759.21
416.78	1728.49
416.99	1654.76
417.20	1722.34
417.41	1740.77
417.62	1759.21
417.83	1708.01
418.04	1738.73
418.26	1798.12
418.47	1722.34
418.68	1773.54
418.89	1734.63
419.10	1859.56
419.31	1789.92
419.52	1699.81
419.73	1703.91
419.95	1767.40
420.16	1699.81
420.37	1748.97
420.58	1751.01
420.79	1589.22
421.00	1691.62
421.21	1701.86
421.42	1697.77
421.63	1746.92
421.85	1652.71
422.06	1681.38
422.27	1671.14
422.48	1753.06
422.69	1710.05
422.90	1695.72
423.11	1628.14
423.32	1765.35
423.53	1761.25
423.75	1652.71
423.96	1781.73
424.17	1824.74
424.38	1837.03
424.59	1665.00
424.80	1705.96
425.01	1714.15
425.22	1640.42
425.43	1677.29
425.64	1761.25
425.85	1771.49
426.06	1837.03
426.28	1699.81
426.49	1665.00
426.70	1617.90
426.91	1742.82
427.12	1730.53
427.33	1765.35
427.54	1746.92
427.75	1716.20
427.96	1742.82
428.17	1738.73
428.38	1679.33
428.59	1771.49
428.80	1699.81
429.01	1675.24
429.23	1683.43
429.44	1697.77
429.65	1738.73
429.86	1724.39
430.07	1675.24
430.28	1583.08
430.49	1732.58
430.70	1785.83
430.91	1828.84
431.12	1630.18
431.33	1716.20
431.54	1763.30
431.75	1720.29
431.96	1724.39
432.17	1660.90
432.38	1755.11
432.59	1748.97
432.80	1875.94
433.01	1730.53
433.22	1667.05
433.43	1677.29
433.64	1712.10
433.85	1726.44
434.06	1716.20
434.27	1603.56
434.49	1667.05
434.70	1744.87
434.91	1628.14
435.12	1667.05
435.33	1710.05
435.54	1673.19
435.75	1617.90
435.96	1691.62
436.17	1728.49
436.38	1751.01
436.59	1720.29
436.80	1665.00
437.01	1789.92
437.22	1785.83
437.43	1722.34
437.64	1660.90
437.85	1716.20
438.06	1621.99
438.27	1675.24
438.48	1746.92
438.69	1691.62
438.90	1656.81
439.11	1716.20
439.32	1841.12
439.53	1605.61
439.74	1648.61
439.95	1675.24
440.16	1601.51
440.37	1730.53
440.57	1617.90
440.78	1744.87
440.99	1765.35
441.20	1621.99
441.41	1615.85
441.62	1574.89
441.83	1646.57
442.04	1595.37
442.25	1732.58
442.46	1609.70
442.67	1611.75
442.88	1769.44
443.09	1693.67
443.30	1638.38
443.51	1720.29
443.72	1693.67
443.93	1685.48
444.14	1777.64
444.35	1595.37
444.56	1710.05
444.77	1615.85
444.98	1669.09
445.19	1675.24
445.40	1691.62
445.61	1687.53
445.81	1703.91
446.02	1826.79
446.23	1652.71
446.44	1624.04
446.65	1701.86
446.86	1656.81
447.07	1746.92
447.28	1687.53
447.49	1714.15
447.70	1732.58
447.91	1710.05
448.12	1714.15
448.33	1718.25
448.54	1738.73
448.74	1675.24
448.95	1673.19
449.16	1728.49
449.37	1697.77
449.58	1736.68
449.79	1753.06
450.00	1677.29
450.21	1660.90
450.42	1734.63
450.63	1734.63
450.84	1587.18
451.05	1746.92
451.25	1650.66
451.46	1654.76
451.67	1853.41
451.88	1726.44
452.09	1687.53
452.30	1613.80
452.51	1615.85
452.72	1714.15
452.93	1781.73
453.13	1677.29
453.34	1617.90
453.55	1703.91
453.76	1716.20
453.97	1650.66
454.18	1540.07
454.39	1679.33
454.60	1656.81
454.81	1701.86
455.01	1730.53
455.22	1548.26
455.43	1585.13
455.64	1689.57
455.85	1699.81
456.06	1716.20
456.27	1767.40
456.48	1671.14
456.68	1632.23
456.89	1695.72
457.10	1705.96
457.31	1710.05
457.52	1783.78
457.73	1669.09
457.94	1685.48
458.14	1603.56
458.35	1675.24
458.56	1687.53
458.77	1722.34
458.98	1644.52
459.19	1689.57
459.39	1667.05
459.60	1675.24
459.81	1646.57
460.02	1658.85
460.23	1691.62
460.44	1648.61
460.65	1689.57
460.85	1683.43
461.06	1621.99
461.27	1712.10
461.48	1726.44
461.69	1699.81
461.89	1550.31
462.10	1687.53
462.31	1581.03
462.52	1652.71
462.73	1632.23
462.94	1757.16
463.14	1621.99
463.35	1658.85
463.56	1761.25
463.77	1673.19
463.98	1581.03
464.18	1669.09
464.39	1718.25
464.60	1816.55
464.81	1695.72
465.02	1703.91
465.23	1753.06
465.43	1744.87
465.64	1626.09
465.85	1574.89
466.06	1751.01
466.27	1708.01
466.47	1677.29
466.68	1802.21
466.89	1630.18
467.10	1652.71
467.30	1630.18
467.51	1826.79
467.72	1716.20
467.93	1628.14
468.14	1654.76
468.34	1736.68
468.55	1703.91
468.76	1738.73
468.97	1681.38
469.17	1814.50
469.38	1728.49
469.59	1718.25
469.80	1716.20
470.01	1681.38
470.21	1632.23
470.42	1681.38
470.63	1714.15
470.84	1769.44
471.04	1730.53
471.25	1726.44
471.46	1716.20
471.67	1845.22
471.87	1667.05
472.08	1736.68
472.29	1716.20
472.50	1716.20
472.70	1675.24
472.91	1691.62
473.12	1638.38
473.33	1638.38
473.53	1832.93
473.74	1689.57
473.95	1689.57
474.16	1550.31
474.36	1646.57
474.57	1744.87
474.78	1648.61
474.99	1775.59
475.19	1636.33
475.40	1761.25
475.61	1755.11
475.81	1767.40
476.02	1705.96
476.23	1757.16
476.44	1599.46
476.64	1585.13
476.85	1701.86
477.06	1740.77
477.27	1658.85
477.47	1728.49
477.68	1687.53
477.89	1683.43
478.09	1789.92
478.30	1732.58
478.51	1603.56
478.71	1628.14
478.92	1699.81
479.13	1724.39
479.34	1701.86
479.54	1665.00
479.75	1654.76
479.96	1654.76
480.16	1712.10
480.37	1665.00
480.58	1705.96
480.78	1712.10
480.99	1650.66
481.20	1679.33
481.41	1773.54
481.61	1818.60
481.82	1769.44
482.03	1669.09
482.23	1675.24
482.44	1771.49
482.65	1787.88
482.85	1757.16
483.06	1693.67
483.27	1689.57
483.47	1703.91
483.68	1730.53
483.89	1716.20
484.09	1714.15
484.30	1679.33
484.51	1867.75
484.71	1665.00
484.92	1619.94
485.13	1667.05
485.33	1705.96
485.54	1585.13
485.75	1658.85
485.95	1679.33
486.16	1660.90
486.37	1744.87
486.57	1619.94
486.78	1708.01
486.98	1708.01
487.19	1591.27
487.40	1755.11
487.60	1728.49
487.81	1708.01
488.02	1613.80
488.22	1619.94
488.43	1738.73
488.64	1744.87
488.84	1613.80
489.05	1810.40
489.25	1728.49
489.46	1783.78
489.67	1658.85
489.87	1701.86
490.08	1718.25
490.29	1644.52
490.49	1775.59
490.70	1714.15
490.90	1748.97
491.11	1685.48
491.32	1677.29
491.52	1630.18
491.73	1701.86
491.94	1619.94
492.14	1630.18
492.35	1685.48
492.55	1755.11
492.76	1601.51
492.97	1613.80
493.17	1753.06
493.38	1712.10
493.58	1748.97
493.79	1695.72
494.00	1722.34
494.20	1658.85
494.41	1662.95
494.61	1761.25
494.82	1648.61
495.02	1613.80
495.23	1771.49
495.44	1746.92
495.64	1665.00
495.85	1624.04
496.05	1746.92
496.26	1683.43
496.47	1687.53
496.67	1673.19
496.88	1791.97
497.08	1634.28
497.29	1638.38
497.49	1708.01
497.70	1671.14
497.91	1681.38
498.11	1744.87
498.32	1705.96
498.52	1759.21
498.73	1751.01
498.93	1667.05
499.14	1751.01
499.34	1724.39
499.55	1802.21
499.76	1599.46
499.96	1691.62
500.17	1699.81
500.37	1730.53
500.58	1703.91
500.78	1648.61
500.99	1634.28
501.19	1648.61
501.40	1781.73
501.60	1634.28
501.81	1642.47
502.02	1791.97
502.22	1650.66
502.43	1656.81
502.63	1843.17
502.84	1732.58
503.04	1705.96
503.25	1728.49
503.45	1773.54
503.66	1583.08
503.86	1730.53
504.07	1759.21
504.27	1585.13
504.48	1673.19
504.68	1621.99
504.89	1869.80
505.09	1626.09
505.30	1593.32
505.50	1689.57
505.71	1732.58
505.91	1710.05
506.12	1697.77
506.32	1710.05
506.53	1597.42
506.73	1734.63
506.94	1654.76
507.14	1597.42
507.35	1796.07
507.55	1654.76
507.76	1605.61
507.96	1585.13
508.17	1732.58
508.37	1613.80
508.58	1765.35
508.78	1783.78
508.99	1691.62
509.19	1748.97
509.40	1689.57
509.60	1679.33
509.81	1705.96
510.01	1751.01
510.22	1634.28
510.42	1773.54
510.63	1703.91
510.83	1665.00
511.04	1583.08
511.24	1724.39
511.44	1769.44
511.65	1650.66
511.85	1691.62
512.06	1662.95
512.26	1607.66
512.47	1697.77
512.67	1679.33
512.88	1787.88
513.08	1656.81
513.29	1759.21
513.49	1656.81
513.69	1728.49
513.90	1712.10
514.10	1718.25
514.31	1738.73
514.51	1669.09
514.72	1693.67
514.92	1685.48
515.13	1607.66
515.33	1601.51
515.53	1673.19
515.74	1785.83
515.94	1679.33
516.15	1789.92
516.35	1611.75
516.56	1642.47
516.76	1669.09
516.96	1673.19
517.17	1699.81
517.37	1738.73
517.58	1630.18
517.78	1755.11
517.99	1755.11
518.19	1738.73
518.39	1722.34
518.60	1777.64
518.80	1738.73
519.01	1787.88
519.21	1673.19
519.41	1679.33
519.62	1652.71
519.82	1701.86
520.03	1667.05
520.23	1638.38
520.43	1636.33
520.64	1812.45
520.84	1791.97
521.05	1697.77
521.25	1718.25
521.45	1712.10
521.66	1669.09
521.86	1718.25
522.07	1728.49
522.27	1708.01
522.47	1648.61
522.68	1689.57
522.88	1687.53
523.08	1746.92
523.29	1603.56
523.49	1708.01
523.70	1589.22
523.90	1683.43
524.10	1648.61
524.31	1658.85
524.51	1589.22
524.71	1699.81
524.92	1703.91
525.12	1628.14
525.33	1699.81
525.53	1703.91
525.73	1765.35
525.94	1621.99
526.14	1679.33
526.34	1708.01
526.55	1677.29
526.75	1710.05
526.95	1863.65
527.16	1646.57
527.36	1662.95
527.56	1685.48
527.77	1685.48
527.97	1761.25
528.17	1689.57
528.38	1720.29
528.58	1658.85
528.78	1626.09
528.99	1634.28
529.19	1679.33
529.39	1712.10
529.60	1626.09
529.80	1714.15
530.00	1712.10
530.21	1740.77
530.41	1718.25
530.61	1718.25
530.82	1669.09
531.02	1728.49
531.22	1771.49
531.43	1658.85
531.63	1685.48
531.83	1671.14
532.04	1734.63
532.24	1656.81
532.44	1621.99
532.64	1767.40
532.85	1611.75
533.05	1617.90
533.25	1632.23
533.46	1708.01
533.66	1738.73
533.86	1640.42
534.07	1734.63
534.27	1673.19
534.47	1722.34
534.67	1705.96
534.88	1660.90
535.08	1705.96
535.28	1740.77
535.49	1687.53
535.69	1759.21
535.89	1759.21
536.09	1796.07
536.30	1742.82
536.50	1708.01
536.70	1697.77
536.91	1730.53
537.11	1810.40
537.31	1708.01
537.51	1722.34
537.72	1687.53
537.92	1703.91
538.12	1677.29
538.32	1681.38
538.53	1714.15
538.73	1595.37
538.93	1681.38
539.13	1681.38
539.34	1773.54
539.54	1628.14
539.74	1679.33
539.94	1689.57
540.15	1781.73
540.35	1708.01
540.55	1691.62
540.75	1613.80
540.96	1687.53
541.16	1667.05
541.36	1718.25
541.56	1769.44
541.77	1714.15
541.97	1667.05
542.17	1650.66
542.37	1744.87
542.58	1718.25
542.78	1765.35
542.98	1675.24
543.18	1734.63
543.38	1728.49
543.59	1773.54
543.79	1617.90
543.99	1568.74
544.19	1650.66
544.40	1720.29
544.60	1705.96
544.80	1654.76
545.00	1675.24
545.20	1691.62
545.41	1675.24
545.61	1636.33
545.81	1697.77
546.01	1648.61
546.21	1687.53
546.42	1640.42
546.62	1822.69
546.82	1626.09
547.02	1660.90
547.22	1679.33
547.43	1699.81
547.63	1685.48
547.83	1699.81
548.03	1605.61
548.23	1773.54
548.44	1693.67
548.64	1638.38
548.84	1769.44
549.04	1656.81
549.24	1785.83
549.45	2009.06
549.65	1722.34
549.85	1724.39
550.05	1681.38
550.25	1603.56
550.45	1820.64
550.66	1740.77
550.86	1613.80
551.06	1699.81
551.26	1677.29
551.46	1671.14
551.66	1748.97
551.87	1708.01
552.07	1648.61
552.27	1636.33
552.47	1779.68
552.67	1730.53
552.87	1626.09
553.07	1628.14
553.28	1724.39
553.48	1652.71
553.68	1658.85
553.88	1818.60
554.08	1685.48
554.28	1640.42
554.48	1673.19
554.69	1732.58
554.89	1665.00
555.09	1658.85
555.29	1605.61
555.49	1665.00
555.69	1708.01
555.89	1734.63
556.10	1667.05
556.30	1619.94
556.50	1736.68
556.70	1761.25
556.90	1732.58
557.10	1744.87
557.30	1724.39
557.50	1611.75
557.70	1634.28
557.91	1677.29
558.11	1687.53
558.31	1794.02
558.51	1718.25
558.71	1708.01
558.91	1761.25
559.11	1628.14
559.31	1535.98
559.51	1744.87
559.72	1771.49
559.92	1619.94
560.12	1685.48
560.32	1734.63
560.52	1732.58
560.72	1722.34
560.92	1769.44
561.12	1808.36
561.32	1695.72
561.52	1638.38
561.72	1875.94
561.93	1796.07
562.13	1695.72
562.33	1646.57
562.53	1724.39
562.73	1679.33
562.93	1644.52
563.13	1705.96
563.33	1771.49
563.53	1791.97
563.73	1773.54
563.93	1722.34
564.13	1789.92
564.33	1603.56
564.53	1665.00
564.74	1667.05
564.94	1667.05
565.14	1746.92
565.34	1660.90
565.54	1732.58
565.74	1708.01
565.94	1650.66
566.14	1689.57
566.34	1738.73
566.54	1759.21
566.74	1730.53
566.94	1722.34
567.14	1738.73
567.34	1650.66
567.54	1658.85
567.74	1712.10
567.94	1697.77
568.14	1718.25
568.34	1802.21
568.54	1712.10
568.74	1718.25
568.94	1767.40
569.14	1843.17
569.34	1740.77
569.54	1638.38
569.75	1613.80
569.95	1703.91
570.15	1703.91
570.35	1765.35
570.55	1652.71
570.75	1722.34
570.95	1679.33
571.15	1716.20
571.35	1605.61
571.55	1679.33
571.75	1691.62
571.95	1605.61
572.15	1740.77
572.35	1697.77
572.55	1724.39
572.75	1722.34
572.95	1630.18
573.15	1691.62
573.35	1802.21
573.55	1728.49
573.75	1636.33
573.95	1798.12
574.15	1708.01
574.35	1728.49
574.55	1726.44
574.75	1685.48
574.95	1617.90
575.15	1679.33
575.34	1730.53
575.54	1738.73
575.74	1710.05
575.94	1714.15
576.14	1630.18
576.34	1689.57
576.54	1603.56
576.74	1794.02
576.94	1597.42
577.14	1734.63
577.34	1712.10
577.54	1671.14
577.74	1654.76
577.94	1718.25
578.14	1687.53
578.34	1732.58
578.54	1593.32
578.74	1689.57
578.94	1718.25
579.14	1695.72
579.34	1642.47
579.54	1665.00
579.74	1757.16
579.94	1638.38
580.13	1667.05
580.33	1644.52
580.53	1699.81
580.73	1708.01
580.93	1716.20
581.13	1656.81
581.33	1716.20
581.53	1728.49
581.73	1738.73
581.93	1660.90
582.13	1787.88
582.33	1744.87
582.53	1642.47
582.73	1730.53
582.92	1628.14
583.12	1755.11
583.32	1648.61
583.52	1771.49
583.72	1843.17
583.92	1728.49
584.12	1716.20
584.32	1728.49
584.52	1585.13
584.72	1628.14
584.92	1687.53
585.11	1736.68
585.31	1753.06
585.51	1613.80
585.71	1716.20
585.91	1796.07
586.11	1685.48
586.31	1746.92
586.51	1683.43
586.71	1748.97
586.91	1585.13
587.10	1775.59
587.30	1757.16
587.50	1636.33
587.70	1652.71
587.90	1689.57
588.10	1613.80
588.30	1708.01
588.50	1687.53
588.69	1697.77
588.89	1708.01
589.09	1744.87
589.29	1660.90
589.49	1691.62
589.69	1619.94
589.89	1689.57
590.08	1632.23
590.28	1613.80
590.48	1767.40
590.68	1689.57
590.88	1693.67
591.08	1681.38
591.28	1748.97
591.47	1656.81
591.67	1593.32
591.87	1687.53
592.07	1875.94
592.27	1660.90
592.47	1632.23
592.67	1697.77
592.86	1699.81
593.06	1716.20
593.26	1814.50
593.46	1744.87
593.66	1665.00
593.86	1785.83
594.05	1744.87
594.25	1691.62
594.45	1638.38
594.65	1789.92
594.85	1736.68
595.05	1746.92
595.24	1685.48
595.44	1591.27
595.64	1675.24
595.84	1685.48
596.04	1697.77
596.23	1701.86
596.43	1796.07
596.63	1638.38
596.83	1607.66
597.03	1867.75
597.22	1581.03
597.42	1748.97
597.62	1724.39
597.82	1687.53
598.02	1759.21
598.21	1648.61
598.41	1732.58
598.61	1658.85
598.81	1654.76
599.01	1652.71
599.20	1636.33
599.40	1705.96
599.60	1691.62
599.80	1691.62
600.00	1855.46
600.19	1722.34
600.39	1626.09
600.59	1720.29
600.79	1791.97
600.98	1738.73
601.18	1761.25
601.38	1834.98
601.58	1593.32
601.78	1658.85
601.97	1779.68
602.17	1708.01
602.37	1574.89
602.57	1683.43
602.76	1648.61
602.96	1722.34
603.16	1634.28
603.36	1679.33
603.55	1695.72
603.75	1685.48
603.95	1714.15
604.15	1822.69
604.34	1667.05
604.54	1689.57
604.74	1761.25
604.94	1767.40
605.13	1607.66
605.33	1708.01
605.53	1675.24
605.73	1656.81
605.92	1705.96
606.12	1722.34
606.32	1642.47
606.52	1783.78
606.71	1710.05
606.91	1658.85
607.11	1654.76
607.30	1705.96
607.50	1630.18
607.70	1785.83
607.90	1691.62
608.09	1617.90
608.29	1765.35
608.49	1724.39
608.68	1675.24
608.88	1687.53
609.08	1652.71
609.28	1728.49
609.47	1675.24
609.67	1716.20
609.87	1728.49
610.06	1720.29
610.26	1705.96
610.46	1818.60
610.66	1652.71
610.85	1638.38
611.05	1687.53
611.25	1687.53
611.44	1673.19
611.64	1740.77
611.84	1712.10
612.03	1650.66
612.23	1738.73
612.43	1794.02
612.62	1763.30
612.82	1806.31
613.02	1732.58
613.21	1794.02
613.41	1763.30
613.61	1681.38
613.80	1648.61
614.00	1710.05
614.20	1710.05
614.39	1773.54
614.59	1685.48
614.79	1685.48
614.98	1673.19
615.18	1720.29
615.38	1734.63
615.57	1732.58
615.77	1820.64
615.97	1716.20
616.16	1689.57
616.36	1724.39
616.56	1679.33
616.75	1658.85
616.95	1712.10
617.15	1789.92
617.34	1732.58
617.54	1789.92
617.74	1810.40
617.93	1751.01
618.13	1667.05
618.32	1687.53
618.52	1712.10
618.72	1683.43
618.91	1736.68
619.11	1736.68
619.31	1726.44
619.50	1665.00
619.70	1624.04
619.90	1712.10
620.09	1753.06
620.29	1630.18
620.48	1794.02
620.68	1771.49
620.88	1771.49
621.07	1685.48
621.27	1714.15
621.46	1710.05
621.66	1802.21
621.86	1667.05
622.05	1578.98
622.25	1787.88
622.44	1642.47
622.64	1667.05
622.84	1740.77
623.03	1677.29
623.23	1681.38
623.42	1765.35
623.62	1648.61
623.82	1753.06
624.01	1718.25
624.21	1714.15
624.40	1800.16
624.60	1691.62
624.80	1656.81
624.99	1746.92
625.19	1708.01
625.38	1689.57
625.58	1755.11
625.77	1763.30
625.97	1751.01
626.17	1757.16
626.36	1673.19
626.56	1701.86
626.75	1732.58
626.95	1812.45
627.14	1710.05
627.34	1640.42
627.54	1755.11
627.73	1740.77
627.93	1722.34
628.12	1693.67
628.32	1714.15
628.51	1705.96
628.71	1798.12
628.90	1671.14
629.10	1681.38
629.30	1701.86
629.49	1751.01
629.69	1740.77
629.88	1644.52
630.08	1771.49
630.27	1857.51
630.47	1757.16
630.66	1640.42
630.86	1714.15
631.05	1736.68
631.25	1665.00
631.44	1822.69
631.64	1619.94
631.84	1632.23
632.03	1802.21
632.23	1648.61
632.42	1699.81
632.62	1691.62
632.81	1722.34
633.01	1740.77
633.20	1757.16
633.40	1861.60
633.59	1669.09
633.79	1626.09
633.98	1695.72
634.18	1708.01
634.37	1824.74
634.57	1658.85
634.76	1667.05
634.96	1742.82
635.15	1845.22
635.35	1763.30
635.54	1759.21
635.74	1740.77
635.93	1687.53
636.13	1701.86
636.32	1781.73
636.52	1742.82
636.71	1685.48
636.91	1701.86
637.10	1759.21
637.30	1671.14
637.49	1679.33
637.69	1738.73
637.88	1724.39
638.08	1667.05
638.27	1697.77
638.46	1679.33
638.66	1689.57
638.85	1638.38
639.05	1730.53
639.24	1798.12
639.44	1796.07
639.63	1746.92
639.83	1734.63
640.02	1699.81
640.22	1687.53
640.41	1683.43
640.61	1789.92
640.80	1728.49
640.99	1724.39
641.19	1757.16
641.38	1683.43
641.58	1656.81
641.77	1755.11
641.97	1648.61
642.16	1697.77
642.36	1656.81
642.55	1699.81
642.74	1732.58
642.94	1728.49
643.13	1691.62
643.33	1771.49
643.52	1667.05
643.72	1730.53
643.91	1689.57
644.10	1794.02
644.30	1691.62
644.49	1728.49
644.69	1697.77
644.88	1632.23
645.08	1781.73
645.27	1740.77
645.46	1716.20
645.66	1769.44
645.85	1693.67
646.05	1722.34
646.24	1701.86
646.43	1658.85
646.63	1683.43
646.82	1681.38
647.02	1716.20
647.21	1794.02
647.40	1611.75
647.60	1644.52
647.79	1779.68
647.99	1607.66
648.18	1626.09
648.37	1767.40
648.57	1712.10
648.76	1710.05
648.96	1652.71
649.15	1669.09
649.34	1843.17
649.54	1753.06
649.73	1630.18
649.92	1724.39
650.12	1703.91
650.31	1722.34
650.51	1896.42
650.70	1683.43
650.89	1701.86
651.09	1744.87
651.28	1761.25
651.47	1654.76
651.67	1812.45
651.86	1718.25
652.06	1697.77
652.25	1728.49
652.44	1675.24
652.64	1726.44
652.83	1771.49
653.02	1775.59
653.22	1767.40
653.41	1601.51
653.60	1796.07
653.80	1705.96
653.99	1761.25
654.18	1617.90
654.38	1689.57
654.57	1767.40
654.76	1673.19
654.96	1656.81
655.15	1669.09
655.34	1763.30
655.54	1552.36
655.73	1689.57
655.92	1671.14
656.12	1689.57
656.31	1785.83
656.50	1783.78
656.70	1726.44
656.89	1681.38
657.08	1576.94
657.28	1753.06
657.47	1673.19
657.66	1648.61
657.86	1658.85
658.05	1806.31
658.24	1757.16
658.43	1736.68
658.63	1572.84
658.82	1748.97
659.01	1853.41
659.21	1757.16
659.40	1648.61
659.59	1724.39
659.79	1617.90
659.98	1753.06
660.17	1714.15
660.36	1722.34
660.56	1656.81
660.75	1712.10
660.94	1759.21
661.14	1701.86
661.33	1640.42
661.52	1716.20
661.71	1759.21
661.91	1779.68
662.10	1734.63
662.29	1628.14
662.49	1740.77
662.68	1636.33
662.87	1611.75
663.06	1699.81
663.26	1695.72
663.45	1787.88
663.64	1685.48
663.83	1634.28
664.03	1783.78
664.22	1773.54
664.41	1742.82
664.60	1689.57
664.80	1667.05
664.99	1767.40
665.18	1744.87
665.37	1632.23
665.57	1779.68
665.76	1642.47
665.95	1744.87
666.14	1748.97
666.34	1617.90
666.53	1691.62
666.72	1613.80
666.91	1724.39
667.11	1642.47
667.30	1818.60
667.49	1634.28
667.68	1841.12
667.87	1751.01
668.07	1771.49
668.26	1665.00
668.45	1656.81
668.64	1673.19
668.84	1738.73
669.03	1648.61
669.22	1736.68
669.41	1665.00
669.60	1621.99
669.80	1740.77
669.99	1656.81
670.18	1656.81
670.37	1783.78
670.57	1753.06
670.76	1812.45
670.95	1824.74
671.14	1658.85
671.33	1626.09
671.53	1753.06
671.72	1746.92
671.91	1714.15
672.10	1701.86
672.29	1710.05
672.48	1591.27
672.68	1695.72
672.87	1642.47
673.06	1695.72
673.25	1708.01
673.44	1687.53
673.64	1656.81
673.83	1726.44
674.02	1642.47
674.21	1763.30
674.40	1742.82
674.59	1642.47
674.79	1667.05
674.98	1769.44
675.17	1728.49
675.36	1624.04
675.55	1646.57
675.74	1736.68
675.94	1847.27
676.13	1677.29
676.32	1665.00
676.51	1730.53
676.70	1550.31
676.89	1716.20
677.08	1724.39
677.28	1730.53
677.47	1689.57
677.66	1710.05
677.85	1636.33
678.04	1687.53
678.23	1744.87
678.42	1697.77
678.62	1808.36
678.81	1712.10
679.00	1648.61
679.19	1824.74
679.38	1699.81
679.57	1718.25
679.76	1634.28
679.96	1667.05
680.15	1757.16
680.34	1585.13
680.53	1712.10
680.72	1775.59
680.91	1701.86
681.10	1789.92
681.29	1777.64
681.48	1777.64
681.68	1691.62
681.87	1800.16
682.06	1732.58
682.25	1726.44
682.44	1675.24
682.63	1769.44
682.82	1574.89
683.01	1765.35
683.20	1644.52
683.39	1779.68
683.59	1667.05
683.78	1679.33
683.97	1671.14
684.16	1556.46
684.35	1593.32
684.54	1683.43
684.73	1630.18
684.92	1656.81
685.11	1740.77
685.30	1710.05
685.49	1675.24
685.69	1718.25
685.88	1708.01
686.07	1673.19
686.26	1728.49
686.45	1714.15
686.64	1734.63
686.83	1656.81
687.02	1814.50
687.21	1832.93
687.40	1632.23
687.59	1798.12
687.78	1781.73
687.97	1769.44
688.16	1681.38
688.35	1714.15
688.54	1712.10
688.74	1527.78
688.93	1605.61
689.12	1689.57
689.31	1761.25
689.50	1705.96
689.69	1683.43
689.88	1724.39
690.07	1705.96
690.26	1722.34
690.45	1687.53
690.64	1699.81
690.83	1675.24
691.02	1722.34
691.21	1705.96
691.40	1687.53
691.59	1636.33
691.78	1683.43
691.97	1665.00
692.16	1640.42
692.35	1714.15
692.54	1753.06
692.73	1601.51
692.92	1775.59
693.11	1728.49
693.30	1769.44
693.49	1609.70
693.68	1789.92
693.87	1748.97
694.06	1675.24
694.25	1658.85
694.44	1697.77
694.63	1716.20
694.82	1658.85
695.01	1730.53
695.20	1724.39
695.39	1703.91
695.58	1673.19
695.77	1642.47
695.96	1675.24
696.15	1656.81
696.34	1560.55
696.53	1724.39
696.72	1703.91
696.91	1705.96
697.10	1812.45
697.29	1691.62
697.48	1839.08
697.67	1681.38
697.86	1656.81
698.05	1689.57
698.24	1703.91
698.43	1605.61
698.62	1753.06
698.81	1681.38
699.00	1724.39
699.19	1810.40
699.38	1720.29
699.57	1624.04
699.76	1738.73
699.95	1632.23
700.14	1679.33
700.32	1708.01
700.51	1693.67
700.70	1640.42
700.89	1722.34
701.08	1744.87
701.27	1642.47
701.46	1740.77
701.65	1771.49
701.84	1626.09
702.03	1634.28
702.22	1730.53
702.41	1736.68
702.60	1693.67
702.79	1693.67
702.98	1607.66
703.17	1716.20
703.35	1728.49
703.54	1712.10
703.73	1730.53
703.92	1695.72
704.11	1675.24
704.30	1681.38
704.49	1691.62
704.68	1669.09
704.87	1589.22
705.06	1855.46
705.25	1568.74
705.43	1705.96
705.62	1624.04
705.81	1757.16
706.00	1669.09
706.19	1667.05
706.38	1703.91
706.57	1734.63
706.76	1650.66
706.95	1650.66
707.14	1761.25
707.32	1681.38
707.51	1650.66
707.70	1662.95
707.89	1656.81
708.08	1753.06
708.27	1667.05
708.46	1744.87
708.65	1683.43
708.84	1738.73
709.02	1611.75
709.21	1687.53
709.40	1677.29
709.59	1763.30
709.78	1703.91
709.97	1640.42
710.16	1697.77
710.34	1773.54
710.53	1705.96
710.72	1683.43
710.91	1720.29
711.10	1626.09
711.29	1640.42
711.48	1820.64
711.66	1650.66
711.85	1636.33
712.04	1724.39
712.23	1671.14
712.42	1687.53
712.61	1779.68
712.80	1669.09
712.98	1576.94
713.17	1742.82
713.36	1753.06
713.55	1771.49
713.74	1640.42
713.93	1728.49
714.11	1685.48
714.30	1521.64
714.49	1673.19
714.68	1693.67
714.87	1615.85
715.06	1894.37
715.24	1720.29
715.43	1685.48
715.62	1708.01
715.81	1673.19
716.00	1648.61
716.18	1718.25
716.37	1671.14
716.56	1734.63
716.75	1646.57
716.94	1642.47
717.12	1695.72
717.31	1681.38
717.50	1646.57
717.69	1654.76
717.88	1767.40
718.06	1773.54
718.25	1738.73
718.44	1685.48
718.63	1789.92
718.82	1630.18
719.00	1716.20
719.19	1925.09
719.38	1687.53
719.57	1777.64
719.76	1667.05
719.94	1660.90
720.13	1671.14
720.32	1802.21
720.51	1628.14
720.69	1724.39
720.88	1710.05
721.07	1669.09
721.26	1712.10
721.44	1716.20
721.63	1724.39
721.82	1689.57
722.01	1667.05
722.20	1703.91
722.38	1712.10
722.57	1626.09
722.76	1699.81
722.95	1570.79
723.13	1654.76
723.32	1730.53
723.51	1730.53
723.70	1667.05
723.88	1644.52
724.07	1609.70
724.26	1726.44
724.44	1726.44
724.63	1814.50
724.82	1712.10
725.01	1710.05
725.19	1650.66
725.38	1697.77
725.57	1626.09
725.76	1808.36
725.94	1587.18
726.13	1685.48
726.32	1660.90
726.51	1632.23
726.69	1609.70
726.88	1724.39
727.07	1751.01
727.25	1724.39
727.44	1656.81
727.63	1720.29
727.82	1669.09
728.00	1646.57
728.19	1650.66
728.38	1656.81
728.56	1675.24
728.75	1800.16
728.94	1697.77
729.12	1748.97
729.31	1642.47
729.50	1695.72
729.69	1712.10
729.87	1712.10
730.06	1708.01
730.25	1730.53
730.43	1648.61
730.62	1589.22
730.81	1630.18
730.99	1722.34
731.18	1634.28
731.37	1630.18
731.55	1699.81
731.74	1732.58
731.93	1605.61
732.11	1634.28
732.30	1660.90
732.49	1693.67
732.67	1636.33
732.86	1673.19
733.05	1654.76
733.23	1765.35
733.42	1687.53
733.61	1732.58
733.79	1660.90
733.98	1683.43
734.17	1593.32
734.35	1744.87
734.54	1738.73
734.73	1818.60
734.91	1564.65
735.10	1744.87
735.29	1708.01
735.47	1624.04
735.66	1617.90
735.84	1726.44
736.03	1636.33
736.22	1703.91
736.40	1667.05
736.59	1603.56
736.78	1611.75
736.96	1697.77
737.15	1748.97
737.33	1773.54
737.52	1658.85
737.71	1667.05
737.89	1685.48
738.08	1718.25
738.27	1761.25
738.45	1757.16
738.64	1675.24
738.82	1576.94
739.01	1744.87
739.20	1728.49
739.38	1765.35
739.57	1683.43
739.75	1740.77
739.94	1718.25
740.13	1613.80
740.31	1650.66
740.50	1761.25
740.68	1665.00
740.87	1732.58
741.06	1759.21
741.24	1765.35
741.43	1695.72
741.61	1609.70
741.80	1617.90
741.99	1673.19
742.17	1732.58
742.36	1630.18
742.54	1646.57
742.73	1728.49
742.91	1660.90
743.10	1679.33
743.29	1665.00
743.47	1708.01
743.66	1576.94
743.84	1636.33
744.03	1712.10
744.21	1628.14
744.40	1722.34
744.59	1673.19
744.77	1581.03
744.96	1675.24
745.14	1677.29
745.33	1634.28
745.51	1796.07
745.70	1681.38
745.88	1738.73
746.07	1671.14
746.26	1689.57
746.44	1626.09
746.63	1572.84
746.81	1687.53
747.00	1695.72
747.18	1646.57
747.37	1644.52
747.55	1722.34
747.74	1970.15
747.92	1716.20
748.11	1683.43
748.29	1714.15
748.48	1730.53
748.66	1605.61
748.85	1656.81
749.03	1601.51
749.22	1701.86
749.41	1701.86
749.59	1724.39
749.78	1671.14
749.96	1617.90
750.15	1646.57
750.33	1710.05
750.52	1650.66
750.70	1738.73
750.89	1656.81
751.07	1609.70
751.26	1763.30
751.44	1640.42
751.63	1685.48
751.81	1617.90
752.00	1574.89
752.18	1755.11
752.37	1683.43
752.55	1576.94
752.74	1581.03
752.92	1636.33
753.10	1646.57
753.29	1714.15
753.47	1763.30
753.66	1523.69
753.84	1642.47
754.03	1601.51
754.21	1730.53
754.40	1746.92
754.58	1689.57
754.77	1757.16
754.95	1675.24
755.14	1626.09
755.32	1677.29
755.51	1578.98
755.69	1677.29
755.88	1662.95
756.06	1724.39
756.24	1630.18
756.43	1712.10
756.61	1738.73
756.80	1564.65
756.98	1628.14
757.17	1691.62
757.35	1679.33
757.54	1708.01
757.72	1630.18
757.90	1636.33
758.09	1652.71
758.27	1589.22
758.46	1636.33
758.64	1728.49
758.83	1755.11
759.01	1753.06
759.19	1710.05
759.38	1626.09
759.56	1671.14
759.75	1646.57
759.93	1763.30
760.12	1669.09
760.30	1615.85
760.48	1701.86
760.67	1722.34
760.85	1652.71
761.04	1648.61
761.22	1689.57
761.40	1714.15
761.59	1722.34
761.77	1683.43
761.96	1654.76
762.14	1669.09
762.32	1732.58
762.51	1660.90
762.69	1583.08
762.88	1675.24
763.06	1587.18
763.24	1630.18
763.43	1673.19
763.61	1667.05
763.80	1660.90
763.98	1724.39
764.16	1605.61
764.35	1656.81
764.53	1660.90
764.72	1703.91
764.90	1638.38
765.08	1683.43
765.27	1755.11
765.45	1607.66
765.63	1603.56
765.82	1617.90
766.00	1624.04
766.18	1626.09
766.37	1669.09
766.55	1630.18
766.74	1691.62
766.92	1591.27
767.10	1660.90
767.29	1728.49
767.47	1658.85
767.65	1621.99
767.84	1708.01
768.02	1794.02
768.20	1658.85
768.39	1638.38
768.57	1675.24
768.75	1660.90
768.94	1736.68
769.12	1568.74
769.30	1665.00
769.49	1644.52
769.67	1640.42
769.85	1812.45
770.04	1642.47
770.22	1599.46
770.40	1705.96
770.59	1679.33
770.77	1771.49
770.95	1697.77
771.14	1742.82
771.32	1619.94
771.50	1562.60
771.69	1626.09
771.87	1607.66
772.05	1673.19
772.24	1615.85
772.42	1675.24
772.60	1685.48
772.78	1767.40
772.97	1519.59
773.15	1716.20
773.33	1673.19
773.52	1556.46
773.70	1679.33
773.88	1640.42
774.07	1519.59
774.25	1617.90
774.43	1712.10
774.61	1681.38
774.80	1650.66
774.98	1714.15
775.16	1708.01
775.34	1679.33
775.53	1722.34
775.71	1677.29
775.89	1763.30
776.08	1658.85
776.26	1628.14
776.44	1648.61
776.62	1550.31
776.81	1650.66
776.99	1734.63
777.17	1642.47
777.35	1677.29
777.54	1751.01
777.72	1613.80
777.90	1626.09
778.08	1662.95
778.27	1720.29
778.45	1621.99
778.63	1640.42
778.81	1728.49
779.00	1724.39
779.18	1662.95
779.36	1730.53
779.54	1658.85
779.73	1673.19
779.91	1716.20
780.09	1691.62
780.27	1734.63
780.46	1644.52
780.64	1642.47
780.82	1667.05
781.00	1621.99
781.19	1667.05
781.37	1675.24
781.55	1777.64
781.73	1695.72
781.91	1527.78
782.10	1640.42
782.28	1769.44
782.46	1681.38
782.64	1720.29
782.82	1757.16
783.01	1681.38
783.19	1716.20
783.37	1656.81
783.55	1683.43
783.74	1679.33
783.92	1538.02
784.10	1677.29
784.28	1652.71
784.46	1646.57
784.64	1630.18
784.83	1665.00
785.01	1802.21
785.19	1726.44
785.37	1736.68
785.55	1693.67
785.74	1603.56
785.92	1621.99
786.10	1646.57
786.28	1751.01
786.46	1687.53
786.64	1605.61
786.83	1578.98
787.01	1708.01
787.19	1736.68
787.37	1773.54
787.55	1728.49
787.74	1689.57
787.92	1685.48
788.10	1755.11
788.28	1628.14
788.46	1667.05
788.64	1722.34
788.82	1673.19
789.01	1636.33
789.19	1722.34
789.37	1669.09
789.55	1714.15
789.73	1640.42
789.91	1650.66
790.09	1675.24
790.28	1648.61
790.46	1632.23
790.64	1654.76
790.82	1665.00
791.00	1621.99
791.18	1617.90
791.36	1734.63
791.55	1652.71
791.73	1617.90
791.91	1677.29
792.09	1671.14
792.27	1564.65
792.45	1642.47
792.63	1683.43
792.81	1722.34
793.00	1613.80
793.18	1720.29
793.36	1751.01
793.54	1708.01
793.72	1630.18
793.90	1650.66
794.08	1626.09
794.26	1683.43
794.44	1595.37
794.62	1679.33
794.81	1556.46
794.99	1634.28
795.17	1699.81
795.35	1640.42
795.53	1634.28
795.71	1724.39
795.89	1617.90
796.07	1667.05
796.25	1683.43
796.43	1708.01
796.61	1646.57
796.80	1636.33
796.98	1642.47
797.16	1716.20
797.34	1603.56
797.52	1695.72
797.70	1748.97
797.88	1720.29
798.06	1593.32
798.24	1714.15
798.42	1624.04
798.60	1671.14
798.78	1628.14
798.96	1718.25
799.14	1689.57
799.32	1710.05
799.51	1638.38
799.69	1748.97
799.87	1802.21
800.05	1726.44
800.23	1568.74
800.41	1708.01
800.59	1667.05
800.77	1576.94
800.95	1572.84
801.13	1677.29
801.31	1617.90
801.49	1718.25
801.67	1619.94
801.85	1556.46
802.03	1679.33
802.21	1736.68
802.39	1560.55
802.57	1634.28
802.75	1662.95
802.93	1728.49
803.11	1576.94
803.29	1634.28
803.47	1665.00
803.65	1525.74
803.83	1630.18
804.01	1667.05
804.19	1587.18
804.37	1632.23
804.55	1652.71
804.73	1714.15
804.91	1558.50
805.09	1613.80
805.27	1767.40
805.45	1667.05
805.63	1703.91
805.81	1687.53
805.99	1732.58
806.17	1638.38
806.35	1589.22
806.53	1621.99
806.71	1769.44
806.89	1689.57
807.07	1699.81
807.25	1679.33
807.43	1564.65
807.61	1763.30
807.79	1701.86
807.97	1718.25
808.15	1677.29
808.33	1601.51
808.51	1726.44
808.69	1691.62
808.87	1603.56
809.05	1644.52
809.23	1587.18
809.41	1609.70
809.59	1566.70
809.77	1730.53
809.95	1652.71
810.13	1681.38
810.31	1650.66
810.49	1697.77
810.67	1658.85
810.84	1689.57
811.02	1675.24
811.20	1556.46
811.38	1734.63
811.56	1650.66
811.74	1650.66
811.92	1621.99
812.10	1656.81
812.28	1689.57
812.46	1691.62
812.64	1658.85
812.82	1693.67
813.00	1669.09
813.18	1574.89
813.36	1687.53
813.53	1599.46
813.71	1744.87
813.89	1693.67
814.07	1605.61
814.25	1726.44
814.43	1626.09
814.61	1560.55
814.79	1687.53
814.97	1624.04
815.15	1714.15
815.33	1568.74
815.50	1626.09
815.68	1632.23
815.86	1642.47
816.04	1665.00
816.22	1708.01
816.40	1683.43
816.58	1681.38
816.76	1564.65
816.94	1576.94
817.11	1619.94
817.29	1628.14
817.47	1654.76
817.65	1621.99
817.83	1654.76
818.01	1611.75
818.19	1626.09
818.37	1667.05
818.54	1677.29
818.72	1742.82
818.90	1765.35
819.08	1619.94
819.26	1667.05
819.44	1775.59
819.62	1710.05
819.80	1650.66
819.97	1669.09
820.15	1581.03
820.33	1632.23
820.51	1617.90
820.69	1693.67
820.87	1621.99
821.05	1708.01
821.22	1624.04
821.40	1665.00
821.58	1677.29
821.76	1613.80
821.94	1560.55
822.12	1636.33
822.29	1683.43
822.47	1662.95
822.65	1626.09
822.83	1609.70
823.01	1732.58
823.19	1619.94
823.36	1671.14
823.54	1585.13
823.72	1640.42
823.90	1652.71
824.08	1572.84
824.25	1685.48
824.43	1732.58
824.61	1621.99
824.79	1701.86
824.97	1578.98
825.15	1630.18
825.32	1660.90
825.50	1767.40
825.68	1507.30
825.86	1613.80
826.04	1654.76
826.21	1693.67
826.39	1654.76
826.57	1640.42
826.75	1744.87
826.93	1642.47
827.10	1710.05
827.28	1595.37
827.46	1685.48
827.64	1761.25
827.81	1665.00
827.99	1665.00
828.17	1656.81
828.35	1634.28
828.53	1638.38
828.70	1660.90
828.88	1597.42
829.06	1611.75
829.24	1648.61
829.41	1671.14
829.59	1650.66
829.77	1607.66
829.95	1650.66
830.12	1593.32
830.30	1718.25
830.48	1712.10
830.66	1595.37
830.84	1695.72
831.01	1697.77
831.19	1603.56
831.37	1777.64
831.55	1609.70
831.72	1712.10
831.90	1767.40
832.08	1699.81
832.25	1736.68
832.43	1640.42
832.61	1732.58
832.79	1523.69
832.96	1691.62
833.14	1726.44
833.32	1716.20
833.50	1601.51
833.67	1718.25
833.85	1617.90
834.03	1597.42
834.20	1593.32
834.38	1781.73
834.56	1679.33
834.74	1601.51
834.91	1634.28
835.09	1662.95
835.27	1597.42
835.44	1728.49
835.62	1529.83
835.80	1634.28
835.98	1611.75
836.15	1695.72
836.33	1613.80
836.51	1574.89
836.68	1615.85
836.86	1642.47
837.04	1740.77
837.21	1728.49
837.39	1705.96
837.57	1746.92
837.75	1640.42
837.92	1648.61
838.10	1646.57
838.28	1589.22
838.45	1581.03
838.63	1630.18
838.81	1681.38
838.98	1671.14
839.16	1652.71
839.34	1658.85
839.51	1640.42
839.69	1603.56
839.87	1656.81
840.04	1683.43
840.22	1947.62
840.40	1638.38
840.57	1595.37
840.75	1609.70
840.93	1617.90
841.10	1660.90
841.28	1773.54
841.46	1671.14
841.63	1685.48
841.81	1671.14
841.98	1540.07
842.16	1662.95
842.34	1658.85
842.51	1511.40
842.69	1656.81
842.87	1624.04
843.04	1621.99
843.22	1572.84
843.40	1650.66
843.57	1621.99
843.75	1572.84
843.92	1675.24
844.10	1683.43
844.28	1642.47
844.45	1685.48
844.63	1650.66
844.81	1726.44
844.98	1773.54
845.16	1714.15
845.33	1722.34
845.51	1611.75
845.69	1683.43
845.86	1771.49
846.04	1630.18
846.21	1585.13
846.39	1572.84
846.57	1589.22
846.74	1538.02
846.92	1714.15
847.09	1650.66
847.27	1624.04
847.45	1650.66
847.62	1669.09
847.80	1660.90
847.97	1681.38
848.15	1585.13
848.32	1593.32
848.50	1662.95
848.68	1572.84
848.85	1624.04
849.03	1574.89
849.20	1583.08
849.38	1642.47
849.56	1609.70
849.73	1587.18
849.91	1730.53
850.08	1650.66
850.26	1562.60
850.43	1662.95
850.61	1685.48
850.78	1540.07
850.96	1724.39
851.14	1587.18
851.31	1877.99
851.49	1656.81
851.66	1718.25
851.84	1585.13
852.01	1650.66
852.19	1576.94
852.36	1644.52
852.54	1605.61
852.71	1636.33
852.89	1712.10
853.07	1556.46
853.24	1658.85
853.42	1626.09
853.59	1642.47
853.77	1665.00
853.94	1714.15
854.12	1720.29
854.29	1529.83
854.47	1621.99
854.64	1738.73
854.82	1658.85
854.99	1636.33
855.17	1662.95
855.34	1597.42
855.52	1642.47
855.69	1703.91
855.87	1685.48
856.04	1665.00
856.22	1675.24
856.39	1650.66
856.57	1644.52
856.74	1599.46
856.92	1771.49
857.09	1624.04
857.27	1607.66
857.44	1644.52
857.62	1650.66
857.79	1646.57
857.97	1708.01
858.14	1648.61
858.32	1636.33
858.49	1548.26
858.67	1626.09
858.84	1671.14
859.02	1736.68
859.19	1648.61
859.37	1607.66
859.54	1650.66
859.72	1652.71
859.89	1611.75
860.06	1560.55
860.24	1685.48
860.41	1742.82
860.59	1597.42
860.76	1689.57
860.94	1503.21
861.11	1703.91
861.29	1677.29
861.46	1552.36
861.64	1671.14
861.81	1673.19
861.98	1607.66
862.16	1585.13
862.33	1576.94
862.51	1595.37
862.68	1689.57
862.86	1619.94
863.03	1626.09
863.21	1609.70
863.38	1581.03
863.55	1568.74
863.73	1671.14
863.90	1673.19
864.08	1597.42
864.25	1601.51
864.43	1722.34
864.60	1619.94
864.77	1689.57
864.95	1652.71
865.12	1572.84
865.30	1615.85
865.47	1714.15
865.64	1724.39
865.82	1652.71
865.99	1699.81
866.17	1603.56
866.34	1703.91
866.51	1515.50
866.69	1644.52
866.86	1773.54
867.04	1683.43
867.21	1687.53
867.38	1624.04
867.56	1658.85
867.73	1626.09
867.91	1589.22
868.08	1587.18
868.25	1628.14
868.43	1642.47
868.60	1699.81
868.78	1593.32
868.95	1675.24
869.12	1683.43
869.30	1605.61
869.47	1646.57
869.64	1648.61
869.82	1607.66
869.99	1624.04
870.16	1677.29
870.34	1691.62
870.51	1804.26
870.69	1538.02
870.86	1697.77
871.03	1722.34
871.21	1660.90
871.38	1714.15
871.55	1691.62
871.73	1716.20
871.90	1632.23
872.07	1685.48
872.25	1578.98
872.42	1572.84
872.59	1609.70
872.77	1650.66
872.94	1628.14
873.11	1609.70
873.29	1734.63
873.46	1607.66
873.63	1646.57
873.81	1660.90
873.98	1683.43
874.15	1568.74
874.33	1720.29
874.50	1691.62
874.67	1695.72
874.85	1642.47
875.02	1693.67
875.19	1632.23
875.37	1613.80
875.54	1591.27
875.71	1660.90
875.88	1683.43
876.06	1660.90
876.23	1656.81
876.40	1718.25
876.58	1619.94
876.75	1665.00
876.92	1572.84
877.10	1710.05
877.27	1646.57
877.44	1675.24
877.61	1642.47
877.79	1708.01
877.96	1722.34
878.13	1679.33
878.31	1621.99
878.48	1699.81
878.65	1751.01
878.82	1574.89
879.00	1621.99
879.17	1681.38
879.34	1636.33
879.51	1552.36
879.69	1656.81
879.86	1486.83
880.03	1591.27
880.21	1650.66
880.38	1646.57
880.55	1681.38
880.72	1724.39
880.90	1669.09
881.07	1568.74
881.24	1699.81
881.41	1689.57
881.59	1728.49
881.76	1716.20
881.93	1822.69
882.10	1628.14
882.28	1693.67
882.45	1699.81
882.62	1693.67
882.79	1685.48
882.96	1556.46
883.14	1581.03
883.31	1585.13
883.48	1583.08
883.65	1665.00
883.83	1638.38
884.00	1599.46
884.17	1570.79
884.34	1613.80
884.51	1671.14
884.69	1722.34
884.86	1632.23
885.03	1662.95
885.20	1576.94
885.38	1724.39
885.55	1665.00
885.72	1679.33
885.89	1574.89
886.06	1650.66
886.24	1615.85
886.41	1599.46
886.58	1757.16
886.75	1638.38
886.92	1572.84
887.10	1558.50
887.27	1654.76
887.44	1660.90
887.61	1714.15
887.78	1650.66
887.95	1712.10
888.13	1646.57
888.30	1587.18
888.47	1589.22
888.64	1689.57
888.81	1673.19
888.99	1552.36
889.16	1662.95
889.33	1677.29
889.50	1689.57
889.67	1759.21
889.84	1658.85
890.01	1699.81
890.19	1732.58
890.36	1691.62
890.53	1703.91
890.70	1662.95
890.87	1703.91
891.04	1601.51
891.22	1679.33
891.39	1507.30
891.56	1671.14
891.73	1658.85
891.90	1617.90
892.07	1556.46
892.24	1611.75
892.42	1589.22
892.59	1574.89
892.76	1650.66
892.93	1535.98
893.10	1632.23
893.27	1689.57
893.44	1523.69
893.61	1687.53
893.79	1671.14
893.96	1609.70
894.13	1597.42
894.30	1593.32
894.47	1716.20
894.64	1806.31
894.81	1640.42
894.98	1605.61
895.15	1699.81
895.33	1820.64
895.50	1574.89
895.67	1605.61
895.84	1638.38
896.01	1693.67
896.18	1630.18
896.35	1699.81
896.52	1617.90
896.69	1607.66
896.86	1619.94
897.04	1748.97
897.21	1636.33
897.38	1658.85
897.55	1679.33
897.72	1615.85
897.89	1576.94
898.06	1699.81
898.23	1540.07
898.40	1675.24
898.57	1675.24
898.74	1669.09
898.91	1548.26
899.08	1607.66
899.26	1640.42
899.43	1728.49
899.60	1708.01
899.77	1705.96
899.94	1589.22
900.11	1611.75
900.28	1662.95
900.45	1685.48
900.62	1583.08
900.79	1669.09
900.96	1648.61
901.13	1665.00
901.30	1638.38
901.47	1591.27
901.64	1558.50
901.81	1687.53
901.98	1593.32
902.15	1705.96
902.32	1587.18
902.49	1683.43
902.66	1693.67
902.83	1683.43
903.01	1603.56
903.18	1599.46
903.35	1591.27
903.52	1589.22
903.69	1660.90
903.86	1660.90
904.03	1566.70
904.20	1693.67
904.37	1689.57
904.54	1445.87
904.71	1613.80
904.88	1632.23
905.05	1607.66
905.22	1617.90
905.39	1601.51
905.56	1560.55
905.73	1570.79
905.90	1562.60
906.07	1617.90
906.24	1654.76
906.41	1617.90
906.58	1691.62
906.75	1550.31
906.92	1519.59
907.09	1640.42
907.26	1683.43
907.43	1544.17
907.60	1617.90
907.77	1708.01
907.93	1638.38
908.10	1585.13
908.27	1710.05
908.44	1566.70
908.61	1568.74
908.78	1615.85
908.95	1736.68
909.12	1609.70
909.29	1581.03
909.46	1654.76
909.63	1720.29
909.80	1636.33
909.97	1701.86
910.14	1660.90
910.31	1595.37
910.48	1619.94
910.65	1679.33
910.82	1621.99
910.99	1568.74
911.16	1650.66
911.33	1660.90
911.50	1578.98
911.66	1587.18
911.83	1626.09
912.00	1533.93
912.17	1558.50
912.34	1593.32
912.51	1626.09
912.68	1642.47
912.85	1642.47
913.02	1638.38
913.19	1634.28
913.36	1646.57
913.53	1695.72
913.70	1638.38
913.86	1742.82
914.03	1572.84
914.20	1630.18
914.37	1597.42
914.54	1646.57
914.71	1677.29
914.88	1705.96
915.05	1603.56
915.22	1568.74
915.39	1597.42
915.55	1601.51
915.72	1650.66
915.89	1550.31
916.06	1593.32
916.23	1630.18
916.40	1581.03
916.57	1552.36
916.74	1621.99
916.91	1673.19
917.07	1568.74
917.24	1499.11
917.41	1640.42
917.58	1607.66
917.75	1624.04
917.92	1548.26
918.09	1613.80
918.26	1650.66
918.42	1624.04
918.59	1673.19
918.76	1613.80
918.93	1650.66
919.10	1621.99
919.27	1648.61
919.44	1720.29
919.60	1576.94
919.77	1644.52
919.94	1589.22
920.11	1675.24
920.28	1714.15
920.45	1589.22
920.61	1597.42
920.78	1665.00
920.95	1634.28
921.12	1681.38
921.29	1609.70
921.46	1601.51
921.62	1609.70
921.79	1677.29
921.96	1658.85
922.13	1691.62
922.30	1533.93
922.47	1597.42
922.63	1640.42
922.80	1638.38
922.97	1591.27
923.14	1507.30
923.31	1658.85
923.47	1708.01
923.64	1830.88
923.81	1605.61
923.98	1675.24
924.15	1587.18
924.32	1703.91
924.48	1605.61
924.65	1640.42
924.82	1613.80
924.99	1572.84
925.15	1566.70
925.32	1730.53
925.49	1617.90
925.66	1587.18
925.83	1667.05
925.99	1632.23
926.16	1730.53
926.33	1607.66
926.50	1593.32
926.67	1642.47
926.83	1587.18
927.00	1703.91
927.17	1705.96
927.34	1624.04
927.50	1718.25
927.67	1845.22
927.84	1656.81
928.01	1675.24
928.17	1695.72
928.34	1624.04
928.51	1605.61
928.68	1558.50
928.84	1638.38
929.01	1568.74
929.18	1568.74
929.35	1669.09
929.51	1656.81
929.68	1607.66
929.85	1648.61
930.02	1581.03
930.18	1687.53
930.35	1652.71
930.52	1685.48
930.69	1605.61
930.85	1685.48
931.02	1552.36
931.19	1677.29
931.36	1560.55
931.52	1650.66
931.69	1654.76
931.86	1632.23
932.02	1585.13
932.19	1624.04
932.36	1691.62
932.53	1693.67
932.69	1550.31
932.86	1716.20
933.03	1617.90
933.19	1566.70
933.36	1585.13
933.53	1679.33
933.70	1693.67
933.86	1759.21
934.03	1740.77
934.20	1613.80
934.36	1667.05
934.53	1628.14
934.70	1583.08
934.86	1656.81
935.03	1634.28
935.20	1699.81
935.36	1673.19
935.53	1613.80
935.70	1646.57
935.86	1662.95
936.03	1552.36
936.20	1529.83
936.36	1601.51
936.53	1626.09
936.70	1601.51
936.86	1757.16
937.03	1646.57
937.20	1566.70
937.36	1738.73
937.53	1583.08
937.70	1624.04
937.86	1597.42
938.03	1609.70
938.20	1771.49
938.36	1665.00
938.53	1593.32
938.70	1527.78
938.86	1599.46
939.03	1662.95
939.20	1683.43
939.36	1576.94
939.53	1675.24
939.70	1818.60
939.86	1648.61
940.03	1671.14
940.19	1638.38
940.36	1656.81
940.53	1644.52
940.69	1662.95
940.86	1728.49
941.03	1581.03
941.19	1583.08
941.36	1589.22
941.52	1677.29
941.69	1675.24
941.86	1570.79
942.02	1667.05
942.19	1650.66
942.35	1648.61
942.52	1615.85
942.69	1658.85
942.85	1589.22
943.02	1603.56
943.18	1624.04
943.35	1693.67
943.52	1570.79
943.68	1589.22
943.85	1681.38
944.01	1605.61
944.18	1566.70
944.35	1683.43
944.51	1687.53
944.68	1525.74
944.84	1607.66
945.01	1531.88
945.17	1642.47
945.34	1687.53
945.51	1746.92
945.67	1654.76
945.84	1576.94
946.00	1609.70
946.17	1644.52
946.33	1599.46
946.50	1708.01
946.67	1615.85
946.83	1576.94
947.00	1724.39
947.16	1601.51
947.33	1648.61
947.49	1591.27
947.66	1607.66
947.82	1654.76
947.99	1576.94
948.16	1650.66
948.32	1648.61
948.49	1693.67
948.65	1699.81
948.82	1591.27
948.98	1705.96
949.15	1593.32
949.31	1673.19
949.48	1673.19
949.64	1607.66
949.81	1576.94
949.97	1599.46
950.14	1658.85
950.30	1558.50
950.47	1599.46
950.63	1593.32
950.80	1617.90
950.96	1578.98
951.13	1671.14
951.30	1673.19
951.46	1634.28
951.63	1728.49
951.79	1589.22
951.96	1675.24
952.12	1669.09
952.29	1621.99
952.45	1597.42
952.62	1642.47
952.78	1660.90
952.94	1609.70
953.11	1566.70
953.27	1529.83
953.44	1691.62
953.60	1691.62
953.77	1638.38
953.93	1621.99
954.10	1619.94
954.26	1593.32
954.43	1644.52
954.59	1720.29
954.76	1740.77
954.92	1662.95
955.09	1705.96
955.25	1607.66
955.42	1566.70
955.58	1632.23
955.75	1646.57
955.91	1611.75
956.07	1677.29
956.24	1646.57
956.40	1667.05
956.57	1669.09
956.73	1550.31
956.90	1667.05
957.06	1636.33
957.23	1583.08
957.39	1572.84
957.56	1595.37
957.72	1523.69
957.88	1535.98
958.05	1740.77
958.21	1724.39
958.38	1560.55
958.54	1576.94
958.71	1687.53
958.87	1576.94
959.03	1675.24
959.20	1603.56
959.36	1589.22
959.53	1634.28
959.69	1640.42
959.85	1705.96
960.02	1519.59
960.18	1552.36
960.35	1546.22
960.51	1720.29
960.68	1607.66
960.84	1667.05
961.00	1638.38
961.17	1601.51
961.33	1630.18
961.50	1529.83
961.66	1615.85
961.82	1540.07
961.99	1617.90
962.15	1710.05
962.31	1595.37
962.48	1626.09
962.64	1734.63
962.81	1646.57
962.97	1603.56
963.13	1728.49
963.30	1593.32
963.46	1601.51
963.62	1591.27
963.79	1613.80
963.95	1607.66
964.12	1605.61
964.28	1720.29
964.44	1572.84
964.61	1675.24
964.77	1671.14
964.93	1730.53
965.10	1560.55
965.26	1507.30
965.42	1568.74
965.59	1531.88
965.75	1613.80
965.92	1636.33
966.08	1660.90
966.24	1605.61
966.41	1677.29
966.57	1638.38
966.73	1683.43
966.90	1667.05
967.06	1568.74
967.22	1669.09
967.39	1566.70
967.55	1599.46
967.71	1626.09
967.88	1703.91
968.04	1589.22
968.20	1546.22
968.37	1642.47
968.53	1558.50
968.69	1665.00
968.85	1679.33
969.02	1609.70
969.18	1652.71
969.34	1658.85
969.51	1576.94
969.67	1685.48
969.83	1513.45
970.00	1677.29
970.16	1605.61
970.32	1683.43
970.48	1687.53
970.65	1648.61
970.81	1642.47
970.97	1597.42
971.14	1533.93
971.30	1708.01
971.46	1535.98
971.63	1697.77
971.79	1632.23
971.95	1628.14
972.11	1572.84
972.28	1552.36
972.44	1714.15
972.60	1525.74
972.76	1615.85
972.93	1650.66
973.09	1693.67
973.25	1716.20
973.42	1621.99
973.58	1732.58
973.74	1650.66
973.90	1675.24
974.07	1642.47
974.23	1576.94
974.39	1650.66
974.55	1578.98
974.72	1576.94
974.88	1490.92
975.04	1640.42
975.20	1562.60
975.37	1624.04
975.53	1554.41
975.69	1693.67
975.85	1605.61
976.01	1595.37
976.18	1652.71
976.34	1673.19
976.50	1626.09
976.66	1716.20
976.83	1597.42
976.99	1607.66
977.15	1652.71
977.31	1488.87
977.47	1740.77
977.64	1667.05
977.80	1617.90
977.96	1642.47
978.12	1560.55
978.29	1644.52
978.45	1507.30
978.61	1544.17
978.77	1658.85
978.93	1519.59
979.10	1648.61
979.26	1609.70
979.42	1609.70
979.58	1585.13
979.74	1531.88
979.91	1628.14
980.07	1591.27
980.23	1621.99
980.39	1597.42
980.55	1660.90
980.71	1585.13
980.88	1570.79
981.04	1611.75
981.20	1662.95
981.36	1648.61
981.52	1621.99
981.68	1535.98
981.85	1669.09
982.01	1617.90
982.17	1531.88
982.33	1587.18
982.49	1648.61
982.65	1589.22
982.82	1574.89
982.98	1671.14
983.14	1564.65
983.30	1705.96
983.46	1689.57
983.62	1613.80
983.79	1574.89
983.95	1533.93
984.11	1546.22
984.27	1609.70
984.43	1581.03
984.59	1593.32
984.75	1681.38
984.91	1578.98
985.08	1679.33
985.24	1562.60
985.40	1548.26
985.56	1642.47
985.72	1621.99
985.88	1667.05
986.04	1564.65
986.20	1570.79
986.37	1703.91
986.53	1597.42
986.69	1624.04
986.85	1578.98
987.01	1658.85
987.17	1662.95
987.33	1640.42
987.49	1615.85
987.65	1699.81
987.82	1626.09
987.98	1533.93
988.14	1589.22
988.30	1644.52
988.46	1587.18
988.62	1570.79
988.78	1576.94
988.94	1720.29
989.10	1630.18
989.26	1560.55
989.42	1665.00
989.59	1609.70
989.75	1650.66
989.91	1714.15
990.07	1574.89
990.23	1638.38
990.39	1638.38
990.55	1675.24
990.71	1519.59
990.87	1626.09
991.03	1626.09
991.19	1576.94
991.35	1609.70
991.51	1615.85
991.67	1728.49
991.83	1564.65
992.00	1621.99
992.16	1650.66
992.32	1630.18
992.48	1605.61
992.64	1513.45
992.80	1628.14
992.96	1605.61
993.12	1650.66
993.28	1695.72
993.44	1605.61
993.60	1658.85
993.76	1617.90
993.92	1538.02
994.08	1646.57
994.24	1570.79
994.40	1583.08
994.56	1677.29
994.72	1585.13
994.88	1607.66
995.04	1589.22
995.20	1640.42
995.36	1585.13
995.52	1658.85
995.68	1624.04
995.84	1589.22
996.00	1722.34
996.16	1644.52
996.32	1540.07
996.48	1587.18
996.64	1734.63
996.80	1572.84
996.96	1585.13
997.12	1529.83
997.28	1525.74
997.44	1503.21
997.60	1517.54
997.76	1572.84
997.92	1601.51
998.08	1599.46
998.24	1550.31
998.40	1574.89
998.56	1638.38
998.72	1601.51
998.88	1550.31
999.04	1683.43
999.20	1640.42
999.36	1578.98
999.52	1681.38
999.68	1634.28
999.84	1646.57
1000.00	1640.42
1000.16	1679.33
1000.32	1581.03
1000.48	1812.45
1000.64	1628.14
1000.80	1601.51
1000.95	1587.18
1001.11	1658.85
1001.27	1515.50
1001.43	1679.33
1001.59	1531.88
1001.75	1624.04
1001.91	1613.80
1002.07	1562.60
1002.23	1638.38
1002.39	1617.90
1002.55	1611.75
1002.71	1527.78
1002.87	1578.98
1003.03	1583.08
1003.19	1548.26
1003.34	1667.05
1003.50	1583.08
1003.66	1564.65
1003.82	1673.19
1003.98	1660.90
1004.14	1597.42
1004.30	1609.70
1004.46	1560.55
1004.62	1636.33
1004.78	1595.37
1004.94	1570.79
1005.09	1609.70
1005.25	1660.90
1005.41	1613.80
1005.57	1648.61
1005.73	1554.41
1005.89	1638.38
1006.05	1632.23
1006.21	1648.61
1006.37	1556.46
1006.52	1576.94
1006.68	1621.99
1006.84	1646.57
1007.00	1621.99
1007.16	1675.24
1007.32	1572.84
1007.48	1642.47
1007.64	1546.22
1007.79	1558.50
1007.95	1615.85
1008.11	1705.96
1008.27	1607.66
1008.43	1599.46
1008.59	1572.84
1008.75	1658.85
1008.91	1646.57
1009.06	1578.98
1009.22	1611.75
1009.38	1646.57
1009.54	1636.33
1009.70	1650.66
1009.86	1669.09
1010.01	1660.90
1010.17	1587.18
1010.33	1630.18
1010.49	1611.75
1010.65	1705.96
1010.81	1533.93
1010.96	1662.95
1011.12	1576.94
1011.28	1591.27
1011.44	1648.61
1011.60	1578.98
1011.76	1665.00
1011.91	1703.91
1012.07	1568.74
1012.23	1597.42
1012.39	1599.46
1012.55	1591.27
1012.71	1671.14
1012.86	1607.66
1013.02	1572.84
1013.18	1560.55
1013.34	1634.28
1013.50	1562.60
1013.65	1675.24
1013.81	1603.56
1013.97	1519.59
1014.13	1636.33
1014.29	1656.81
1014.44	1730.53
1014.60	1566.70
1014.76	1589.22
1014.92	1601.51
1015.07	1564.65
1015.23	1632.23
1015.39	1605.61
1015.55	1542.12
1015.71	1648.61
1015.86	1546.22
1016.02	1619.94
1016.18	1546.22
1016.34	1576.94
1016.49	1626.09
1016.65	1603.56
1016.81	1617.90
1016.97	1646.57
1017.12	1660.90
1017.28	1517.54
1017.44	1564.65
1017.60	1583.08
1017.75	1613.80
1017.91	1624.04
1018.07	1671.14
1018.23	1646.57
1018.38	1570.79
1018.54	1558.50
1018.70	1593.32
1018.86	1566.70
1019.01	1568.74
1019.17	1589.22
1019.33	1677.29
1019.49	1634.28
1019.64	1621.99
1019.80	1613.80
1019.96	1728.49
1020.12	1634.28
1020.27	1531.88
1020.43	1597.42
1020.59	1675.24
1020.74	1753.06
1020.90	1638.38
1021.06	1533.93
1021.22	1560.55
1021.37	1574.89
1021.53	1521.64
1021.69	1597.42
1021.84	1519.59
1022.00	1640.42
1022.16	1546.22
1022.31	1632.23
1022.47	1646.57
1022.63	1681.38
1022.79	1462.25
1022.94	1497.07
1023.10	1667.05
1023.26	1638.38
1023.41	1621.99
1023.57	1615.85
1023.73	1654.76
1023.88	1646.57
1024.04	1591.27
1024.20	1570.79
1024.35	1710.05
1024.51	1599.46
1024.67	1615.85
1024.82	1658.85
1024.98	1615.85
1025.14	1632.23
1025.29	1607.66
1025.45	1609.70
1025.61	1507.30
1025.76	1611.75
1025.92	1634.28
1026.08	1646.57
1026.23	1636.33
1026.39	1677.29
1026.55	1656.81
1026.70	1544.17
1026.86	1624.04
1027.02	1621.99
1027.17	1632.23
1027.33	1634.28
1027.48	1601.51
1027.64	1566.70
1027.80	1638.38
1027.95	1599.46
1028.11	1495.02
1028.27	1634.28
1028.42	1619.94
1028.58	1562.60
1028.73	1630.18
1028.89	1544.17
1029.05	1654.76
1029.20	1658.85
>>>>>End Processed Spectral Data<<<<<
