SpectraSuite Data File
++++++++++++++++++++++++++++++++++++
Date: Fri Jun 02 14:49:23 CEST 2017
User: INFO_000
Dark Spectrum Present: No
Reference Spectrum Present: No
Number of Sampled Component Spectra: 1
Spectrometers: USB4H00879
Integration Time (usec): 80000 (USB4H00879)
Spectra Averaged: 1 (USB4H00879)
Boxcar Smoothing: 0 (USB4H00879)
Correct for Electrical Dark: No (USB4H00879)
Strobe/Lamp Enabled: No (USB4H00879)
Correct for Detector Non-linearity: No (USB4H00879)
Correct for Stray Light: No (USB4H00879)
Number of Pixels in Processed Spectrum: 3648
>>>>>Begin Processed Spectral Data<<<<<
345.13	1304.56
345.34	1304.56
345.56	1304.56
345.78	1236.97
345.99	1282.03
346.21	1683.43
346.42	1736.68
346.64	1687.53
346.86	1740.77
347.07	1624.04
347.29	1697.77
347.50	1615.85
347.72	1628.14
347.94	1757.16
348.15	1562.60
348.37	1566.70
348.59	1644.52
348.80	1683.43
349.02	1617.90
349.23	1722.34
349.45	1775.59
349.67	1722.34
349.88	1736.68
350.10	1841.12
350.31	1640.42
350.53	1705.96
350.75	1845.22
350.96	1656.81
351.18	1693.67
351.39	1695.72
351.61	1660.90
351.82	1781.73
352.04	1736.68
352.26	1673.19
352.47	1761.25
352.69	1785.83
352.90	1697.77
353.12	1681.38
353.34	1667.05
353.55	1779.68
353.77	1763.30
353.98	1701.86
354.20	1742.82
354.41	1755.11
354.63	1787.88
354.85	1865.70
355.06	1755.11
355.28	1634.28
355.49	1765.35
355.71	1695.72
355.92	1654.76
356.14	1785.83
356.35	1640.42
356.57	1693.67
356.79	1712.10
357.00	1665.00
357.22	1800.16
357.43	1611.75
357.65	1773.54
357.86	1644.52
358.08	1740.77
358.29	1687.53
358.51	1806.31
358.72	1757.16
358.94	1748.97
359.16	1728.49
359.37	1722.34
359.59	1648.61
359.80	1720.29
360.02	1720.29
360.23	1720.29
360.45	1822.69
360.66	1691.62
360.88	1667.05
361.09	1681.38
361.31	1671.14
361.52	1730.53
361.74	1771.49
361.95	1802.21
362.17	1660.90
362.38	1804.26
362.60	1800.16
362.81	1677.29
363.03	1656.81
363.24	1759.21
363.46	1798.12
363.67	1777.64
363.89	1699.81
364.10	1720.29
364.32	1699.81
364.53	1839.08
364.75	1615.85
364.96	1716.20
365.18	1742.82
365.39	1634.28
365.61	1667.05
365.82	1785.83
366.04	1642.47
366.25	1695.72
366.47	1740.77
366.68	1738.73
366.90	1716.20
367.11	1761.25
367.33	1789.92
367.54	1806.31
367.76	1699.81
367.97	1787.88
368.19	1695.72
368.40	1771.49
368.62	1650.66
368.83	1624.04
369.05	1736.68
369.26	1691.62
369.48	1589.22
369.69	1583.08
369.91	1751.01
370.12	1683.43
370.33	1771.49
370.55	1638.38
370.76	1634.28
370.98	1748.97
371.19	1716.20
371.41	1648.61
371.62	1705.96
371.84	1718.25
372.05	1789.92
372.27	1642.47
372.48	1769.44
372.69	1736.68
372.91	1755.11
373.12	1701.86
373.34	1685.48
373.55	1699.81
373.77	1708.01
373.98	1712.10
374.20	1662.95
374.41	1818.60
374.62	1652.71
374.84	1683.43
375.05	1675.24
375.27	1669.09
375.48	1693.67
375.70	1648.61
375.91	1699.81
376.12	1779.68
376.34	1650.66
376.55	1730.53
376.77	1699.81
376.98	1576.94
377.19	1650.66
377.41	1617.90
377.62	1665.00
377.84	1724.39
378.05	1871.84
378.27	1703.91
378.48	1845.22
378.69	1814.50
378.91	1681.38
379.12	1681.38
379.34	1716.20
379.55	1744.87
379.76	1691.62
379.98	1738.73
380.19	1732.58
380.41	1679.33
380.62	1748.97
380.83	1662.95
381.05	1605.61
381.26	1855.46
381.47	1671.14
381.69	1775.59
381.90	1777.64
382.12	1646.57
382.33	1617.90
382.54	1638.38
382.76	1802.21
382.97	1650.66
383.19	1658.85
383.40	1834.98
383.61	1587.18
383.83	1701.86
384.04	1681.38
384.25	1708.01
384.47	1712.10
384.68	1728.49
384.89	1650.66
385.11	1691.62
385.32	1683.43
385.54	1648.61
385.75	1658.85
385.96	1677.29
386.18	1736.68
386.39	1689.57
386.60	1626.09
386.82	1714.15
387.03	1710.05
387.24	1720.29
387.46	1681.38
387.67	1730.53
387.88	1710.05
388.10	1681.38
388.31	1699.81
388.52	1812.45
388.74	1716.20
388.95	1636.33
389.16	1703.91
389.38	1597.42
389.59	1794.02
389.80	1808.36
390.02	1726.44
390.23	1712.10
390.44	1765.35
390.66	1654.76
390.87	1632.23
391.08	1615.85
391.30	1779.68
391.51	1718.25
391.72	1738.73
391.94	1640.42
392.15	1669.09
392.36	1671.14
392.58	1654.76
392.79	1791.97
393.00	1757.16
393.22	1693.67
393.43	1748.97
393.64	1839.08
393.85	1708.01
394.07	1642.47
394.28	1746.92
394.49	1654.76
394.71	1794.02
394.92	1798.12
395.13	1646.57
395.35	1621.99
395.56	1658.85
395.77	1708.01
395.98	1748.97
396.20	1753.06
396.41	1785.83
396.62	1705.96
396.84	1658.85
397.05	1679.33
397.26	1697.77
397.47	1712.10
397.69	1630.18
397.90	1871.84
398.11	1804.26
398.32	1630.18
398.54	1636.33
398.75	1685.48
398.96	1650.66
399.18	1785.83
399.39	1685.48
399.60	1726.44
399.81	1710.05
400.03	1630.18
400.24	1877.99
400.45	1714.15
400.66	1789.92
400.88	1589.22
401.09	1785.83
401.30	1628.14
401.51	1812.45
401.73	1775.59
401.94	1785.83
402.15	1640.42
402.36	1759.21
402.58	1751.01
402.79	1720.29
403.00	1716.20
403.21	1757.16
403.43	1718.25
403.64	1771.49
403.85	1658.85
404.06	1755.11
404.27	1619.94
404.49	1732.58
404.70	1761.25
404.91	1732.58
405.12	1728.49
405.34	1703.91
405.55	1826.79
405.76	1685.48
405.97	1722.34
406.19	1814.50
406.40	1621.99
406.61	1738.73
406.82	1724.39
407.03	1695.72
407.25	1630.18
407.46	1763.30
407.67	1824.74
407.88	1738.73
408.09	1710.05
408.31	1597.42
408.52	1695.72
408.73	1683.43
408.94	1656.81
409.15	1656.81
409.37	1787.88
409.58	1726.44
409.79	1695.72
410.00	1798.12
410.21	1740.77
410.43	1697.77
410.64	1667.05
410.85	1732.58
411.06	1648.61
411.27	1794.02
411.48	1777.64
411.70	1755.11
411.91	1705.96
412.12	1746.92
412.33	1742.82
412.54	1761.25
412.76	1718.25
412.97	1859.56
413.18	1748.97
413.39	1765.35
413.60	1761.25
413.81	1779.68
414.03	1671.14
414.24	1761.25
414.45	1873.89
414.66	1601.51
414.87	1746.92
415.08	1673.19
415.30	1689.57
415.51	1701.86
415.72	1634.28
415.93	1689.57
416.14	1724.39
416.35	1673.19
416.56	1712.10
416.78	1757.16
416.99	1673.19
417.20	1751.01
417.41	1804.26
417.62	1738.73
417.83	1662.95
418.04	1753.06
418.26	1789.92
418.47	1724.39
418.68	1773.54
418.89	1691.62
419.10	1863.65
419.31	1789.92
419.52	1740.77
419.73	1716.20
419.95	1722.34
420.16	1652.71
420.37	1744.87
420.58	1724.39
420.79	1593.32
421.00	1656.81
421.21	1746.92
421.42	1630.18
421.63	1712.10
421.85	1632.23
422.06	1667.05
422.27	1703.91
422.48	1675.24
422.69	1665.00
422.90	1630.18
423.11	1601.51
423.32	1740.77
423.53	1726.44
423.75	1712.10
423.96	1818.60
424.17	1689.57
424.38	1800.16
424.59	1730.53
424.80	1708.01
425.01	1763.30
425.22	1626.09
425.43	1738.73
425.64	1753.06
425.85	1812.45
426.06	1802.21
426.28	1708.01
426.49	1630.18
426.70	1558.50
426.91	1744.87
427.12	1738.73
427.33	1724.39
427.54	1650.66
427.75	1656.81
427.96	1689.57
428.17	1773.54
428.38	1777.64
428.59	1679.33
428.80	1726.44
429.01	1669.09
429.23	1697.77
429.44	1708.01
429.65	1732.58
429.86	1697.77
430.07	1716.20
430.28	1679.33
430.49	1736.68
430.70	1724.39
430.91	1837.03
431.12	1654.76
431.33	1744.87
431.54	1775.59
431.75	1714.15
431.96	1687.53
432.17	1712.10
432.38	1736.68
432.59	1802.21
432.80	1810.40
433.01	1634.28
433.22	1695.72
433.43	1755.11
433.64	1759.21
433.85	1744.87
434.06	1759.21
434.27	1683.43
434.49	1671.14
434.70	1728.49
434.91	1695.72
435.12	1703.91
435.33	1640.42
435.54	1710.05
435.75	1617.90
435.96	1722.34
436.17	1734.63
436.38	1806.31
436.59	1671.14
436.80	1638.38
437.01	1748.97
437.22	1675.24
437.43	1736.68
437.64	1650.66
437.85	1716.20
438.06	1798.12
438.27	1724.39
438.48	1660.90
438.69	1757.16
438.90	1732.58
439.11	1740.77
439.32	1767.40
439.53	1548.26
439.74	1697.77
439.95	1705.96
440.16	1689.57
440.37	1630.18
440.57	1615.85
440.78	1712.10
440.99	1656.81
441.20	1734.63
441.41	1587.18
441.62	1656.81
441.83	1734.63
442.04	1644.52
442.25	1693.67
442.46	1578.98
442.67	1611.75
442.88	1781.73
443.09	1673.19
443.30	1673.19
443.51	1689.57
443.72	1744.87
443.93	1693.67
444.14	1800.16
444.35	1619.94
444.56	1701.86
444.77	1699.81
444.98	1751.01
445.19	1660.90
445.40	1699.81
445.61	1673.19
445.81	1624.04
446.02	1798.12
446.23	1693.67
446.44	1685.48
446.65	1581.03
446.86	1802.21
447.07	1857.51
447.28	1652.71
447.49	1757.16
447.70	1642.47
447.91	1691.62
448.12	1646.57
448.33	1697.77
448.54	1695.72
448.74	1648.61
448.95	1671.14
449.16	1720.29
449.37	1845.22
449.58	1751.01
449.79	1761.25
450.00	1683.43
450.21	1685.48
450.42	1662.95
450.63	1658.85
450.84	1675.24
451.05	1720.29
451.25	1662.95
451.46	1685.48
451.67	1798.12
451.88	1677.29
452.09	1687.53
452.30	1638.38
452.51	1644.52
452.72	1716.20
452.93	1814.50
453.13	1673.19
453.34	1630.18
453.55	1740.77
453.76	1746.92
453.97	1662.95
454.18	1605.61
454.39	1742.82
454.60	1644.52
454.81	1705.96
455.01	1675.24
455.22	1572.84
455.43	1673.19
455.64	1742.82
455.85	1796.07
456.06	1697.77
456.27	1712.10
456.48	1730.53
456.68	1703.91
456.89	1730.53
457.10	1654.76
457.31	1695.72
457.52	1720.29
457.73	1650.66
457.94	1705.96
458.14	1544.17
458.35	1689.57
458.56	1732.58
458.77	1675.24
458.98	1628.14
459.19	1751.01
459.39	1701.86
459.60	1716.20
459.81	1708.01
460.02	1691.62
460.23	1755.11
460.44	1632.23
460.65	1681.38
460.85	1705.96
461.06	1648.61
461.27	1757.16
461.48	1630.18
461.69	1675.24
461.89	1591.27
462.10	1683.43
462.31	1576.94
462.52	1585.13
462.73	1656.81
462.94	1667.05
463.14	1667.05
463.35	1652.71
463.56	1773.54
463.77	1783.78
463.98	1589.22
464.18	1630.18
464.39	1662.95
464.60	1761.25
464.81	1683.43
465.02	1769.44
465.23	1714.15
465.43	1738.73
465.64	1603.56
465.85	1640.42
466.06	1753.06
466.27	1705.96
466.47	1744.87
466.68	1814.50
466.89	1695.72
467.10	1589.22
467.30	1628.14
467.51	1755.11
467.72	1794.02
467.93	1605.61
468.14	1665.00
468.34	1744.87
468.55	1728.49
468.76	1753.06
468.97	1753.06
469.17	1718.25
469.38	1777.64
469.59	1714.15
469.80	1736.68
470.01	1708.01
470.21	1712.10
470.42	1652.71
470.63	1683.43
470.84	1748.97
471.04	1687.53
471.25	1802.21
471.46	1705.96
471.67	1841.12
471.87	1644.52
472.08	1728.49
472.29	1703.91
472.50	1720.29
472.70	1675.24
472.91	1617.90
473.12	1574.89
473.33	1677.29
473.53	1720.29
473.74	1576.94
473.95	1626.09
474.16	1642.47
474.36	1654.76
474.57	1740.77
474.78	1697.77
474.99	1777.64
475.19	1705.96
475.40	1738.73
475.61	1722.34
475.81	1716.20
476.02	1681.38
476.23	1705.96
476.44	1654.76
476.64	1679.33
476.85	1710.05
477.06	1695.72
477.27	1685.48
477.47	1722.34
477.68	1687.53
477.89	1701.86
478.09	1687.53
478.30	1742.82
478.51	1699.81
478.71	1609.70
478.92	1699.81
479.13	1722.34
479.34	1644.52
479.54	1701.86
479.75	1673.19
479.96	1656.81
480.16	1648.61
480.37	1695.72
480.58	1703.91
480.78	1767.40
480.99	1665.00
481.20	1699.81
481.41	1742.82
481.61	1744.87
481.82	1802.21
482.03	1654.76
482.23	1609.70
482.44	1787.88
482.65	1796.07
482.85	1824.74
483.06	1732.58
483.27	1732.58
483.47	1730.53
483.68	1712.10
483.89	1677.29
484.09	1712.10
484.30	1691.62
484.51	1765.35
484.71	1564.65
484.92	1671.14
485.13	1730.53
485.33	1652.71
485.54	1607.66
485.75	1615.85
485.95	1732.58
486.16	1642.47
486.37	1742.82
486.57	1687.53
486.78	1742.82
486.98	1722.34
487.19	1675.24
487.40	1699.81
487.60	1720.29
487.81	1667.05
488.02	1597.42
488.22	1607.66
488.43	1775.59
488.64	1716.20
488.84	1613.80
489.05	1763.30
489.25	1734.63
489.46	1658.85
489.67	1621.99
489.87	1734.63
490.08	1685.48
490.29	1665.00
490.49	1906.66
490.70	1665.00
490.90	1677.29
491.11	1658.85
491.32	1644.52
491.52	1576.94
491.73	1640.42
491.94	1716.20
492.14	1593.32
492.35	1691.62
492.55	1757.16
492.76	1654.76
492.97	1640.42
493.17	1673.19
493.38	1820.64
493.58	1755.11
493.79	1662.95
494.00	1665.00
494.20	1654.76
494.41	1679.33
494.61	1708.01
494.82	1658.85
495.02	1648.61
495.23	1683.43
495.44	1658.85
495.64	1683.43
495.85	1646.57
496.05	1728.49
496.26	1726.44
496.47	1679.33
496.67	1691.62
496.88	1734.63
497.08	1681.38
497.29	1687.53
497.49	1777.64
497.70	1708.01
497.91	1646.57
498.11	1806.31
498.32	1697.77
498.52	1767.40
498.73	1757.16
498.93	1724.39
499.14	1730.53
499.34	1703.91
499.55	1800.16
499.76	1609.70
499.96	1738.73
500.17	1748.97
500.37	1761.25
500.58	1685.48
500.78	1615.85
500.99	1642.47
501.19	1687.53
501.40	1728.49
501.60	1599.46
501.81	1662.95
502.02	1667.05
502.22	1656.81
502.43	1705.96
502.63	1812.45
502.84	1769.44
503.04	1722.34
503.25	1677.29
503.45	1705.96
503.66	1587.18
503.86	1800.16
504.07	1847.27
504.27	1650.66
504.48	1662.95
504.68	1677.29
504.89	1855.46
505.09	1652.71
505.30	1691.62
505.50	1720.29
505.71	1658.85
505.91	1765.35
506.12	1695.72
506.32	1773.54
506.53	1624.04
506.73	1660.90
506.94	1658.85
507.14	1669.09
507.35	1755.11
507.55	1724.39
507.76	1691.62
507.96	1693.67
508.17	1738.73
508.37	1638.38
508.58	1738.73
508.78	1673.19
508.99	1785.83
509.19	1769.44
509.40	1732.58
509.60	1673.19
509.81	1763.30
510.01	1695.72
510.22	1677.29
510.42	1701.86
510.63	1699.81
510.83	1613.80
511.04	1650.66
511.24	1689.57
511.44	1656.81
511.65	1710.05
511.85	1742.82
512.06	1714.15
512.26	1660.90
512.47	1787.88
512.67	1568.74
512.88	1718.25
513.08	1605.61
513.29	1773.54
513.49	1589.22
513.69	1675.24
513.90	1703.91
514.10	1763.30
514.31	1740.77
514.51	1669.09
514.72	1691.62
514.92	1738.73
515.13	1693.67
515.33	1705.96
515.53	1654.76
515.74	1761.25
515.94	1642.47
516.15	1775.59
516.35	1656.81
516.56	1624.04
516.76	1697.77
516.96	1734.63
517.17	1748.97
517.37	1814.50
517.58	1507.30
517.78	1619.94
517.99	1781.73
518.19	1789.92
518.39	1751.01
518.60	1789.92
518.80	1675.24
519.01	1757.16
519.21	1685.48
519.41	1699.81
519.62	1609.70
519.82	1669.09
520.03	1677.29
520.23	1691.62
520.43	1685.48
520.64	1755.11
520.84	1777.64
521.05	1654.76
521.25	1699.81
521.45	1730.53
521.66	1615.85
521.86	1724.39
522.07	1691.62
522.27	1685.48
522.47	1634.28
522.68	1671.14
522.88	1740.77
523.08	1746.92
523.29	1650.66
523.49	1697.77
523.70	1679.33
523.90	1757.16
524.10	1708.01
524.31	1681.38
524.51	1587.18
524.71	1771.49
524.92	1722.34
525.12	1624.04
525.33	1716.20
525.53	1748.97
525.73	1779.68
525.94	1632.23
526.14	1662.95
526.34	1644.52
526.55	1685.48
526.75	1658.85
526.95	1847.27
527.16	1708.01
527.36	1777.64
527.56	1716.20
527.77	1691.62
527.97	1810.40
528.17	1734.63
528.38	1669.09
528.58	1611.75
528.78	1650.66
528.99	1667.05
529.19	1681.38
529.39	1691.62
529.60	1699.81
529.80	1693.67
530.00	1591.27
530.21	1781.73
530.41	1687.53
530.61	1765.35
530.82	1716.20
531.02	1683.43
531.22	1695.72
531.43	1716.20
531.63	1708.01
531.83	1695.72
532.04	1751.01
532.24	1703.91
532.44	1667.05
532.64	1748.97
532.85	1662.95
533.05	1728.49
533.25	1654.76
533.46	1654.76
533.66	1769.44
533.86	1679.33
534.07	1761.25
534.27	1585.13
534.47	1800.16
534.67	1660.90
534.88	1687.53
535.08	1705.96
535.28	1656.81
535.49	1607.66
535.69	1773.54
535.89	1687.53
536.09	1701.86
536.30	1796.07
536.50	1726.44
536.70	1687.53
536.91	1671.14
537.11	1830.88
537.31	1656.81
537.51	1634.28
537.72	1736.68
537.92	1738.73
538.12	1716.20
538.32	1748.97
538.53	1689.57
538.73	1689.57
538.93	1695.72
539.13	1687.53
539.34	1730.53
539.54	1654.76
539.74	1763.30
539.94	1695.72
540.15	1751.01
540.35	1695.72
540.55	1650.66
540.75	1710.05
540.96	1683.43
541.16	1738.73
541.36	1675.24
541.56	1732.58
541.77	1773.54
541.97	1761.25
542.17	1665.00
542.37	1837.03
542.58	1665.00
542.78	1712.10
542.98	1673.19
543.18	1757.16
543.38	1779.68
543.59	1716.20
543.79	1671.14
543.99	1650.66
544.19	1685.48
544.40	1691.62
544.60	1652.71
544.80	1695.72
545.00	1607.66
545.20	1738.73
545.41	1724.39
545.61	1644.52
545.81	1673.19
546.01	1708.01
546.21	1691.62
546.42	1685.48
546.62	1791.97
546.82	1685.48
547.02	1667.05
547.22	1705.96
547.43	1718.25
547.63	1697.77
547.83	1679.33
548.03	1667.05
548.23	1740.77
548.44	1640.42
548.64	1679.33
548.84	1685.48
549.04	1671.14
549.24	1794.02
549.45	2015.20
549.65	1656.81
549.85	1734.63
550.05	1658.85
550.25	1628.14
550.45	1765.35
550.66	1724.39
550.86	1679.33
551.06	1716.20
551.26	1652.71
551.46	1724.39
551.66	1693.67
551.87	1621.99
552.07	1703.91
552.27	1697.77
552.47	1812.45
552.67	1667.05
552.87	1732.58
553.07	1789.92
553.28	1734.63
553.48	1648.61
553.68	1689.57
553.88	1744.87
554.08	1656.81
554.28	1615.85
554.48	1687.53
554.69	1667.05
554.89	1779.68
555.09	1634.28
555.29	1581.03
555.49	1730.53
555.69	1728.49
555.89	1611.75
556.10	1679.33
556.30	1658.85
556.50	1777.64
556.70	1667.05
556.90	1701.86
557.10	1761.25
557.30	1736.68
557.50	1662.95
557.70	1648.61
557.91	1673.19
558.11	1679.33
558.31	1773.54
558.51	1652.71
558.71	1755.11
558.91	1738.73
559.11	1642.47
559.31	1601.51
559.51	1697.77
559.72	1830.88
559.92	1624.04
560.12	1617.90
560.32	1814.50
560.52	1740.77
560.72	1656.81
560.92	1810.40
561.12	1693.67
561.32	1613.80
561.52	1595.37
561.72	1830.88
561.93	1808.36
562.13	1718.25
562.33	1617.90
562.53	1695.72
562.73	1621.99
562.93	1744.87
563.13	1753.06
563.33	1802.21
563.53	1695.72
563.73	1798.12
563.93	1726.44
564.13	1818.60
564.33	1736.68
564.53	1665.00
564.74	1728.49
564.94	1683.43
565.14	1662.95
565.34	1724.39
565.54	1703.91
565.74	1691.62
565.94	1703.91
566.14	1734.63
566.34	1671.14
566.54	1650.66
566.74	1640.42
566.94	1697.77
567.14	1708.01
567.34	1761.25
567.54	1716.20
567.74	1703.91
567.94	1642.47
568.14	1669.09
568.34	1710.05
568.54	1726.44
568.74	1671.14
568.94	1679.33
569.14	1773.54
569.34	1761.25
569.54	1546.22
569.75	1738.73
569.95	1689.57
570.15	1781.73
570.35	1662.95
570.55	1626.09
570.75	1675.24
570.95	1759.21
571.15	1787.88
571.35	1695.72
571.55	1716.20
571.75	1773.54
571.95	1724.39
572.15	1669.09
572.35	1730.53
572.55	1699.81
572.75	1634.28
572.95	1624.04
573.15	1738.73
573.35	1810.40
573.55	1665.00
573.75	1679.33
573.95	1845.22
574.15	1689.57
574.35	1689.57
574.55	1738.73
574.75	1652.71
574.95	1677.29
575.15	1671.14
575.34	1646.57
575.54	1701.86
575.74	1773.54
575.94	1714.15
576.14	1673.19
576.34	1718.25
576.54	1632.23
576.74	1753.06
576.94	1560.55
577.14	1761.25
577.34	1802.21
577.54	1695.72
577.74	1597.42
577.94	1712.10
578.14	1638.38
578.34	1767.40
578.54	1603.56
578.74	1634.28
578.94	1730.53
579.14	1755.11
579.34	1662.95
579.54	1718.25
579.74	1701.86
579.94	1722.34
580.13	1718.25
580.33	1632.23
580.53	1687.53
580.73	1710.05
580.93	1708.01
581.13	1644.52
581.33	1699.81
581.53	1724.39
581.73	1675.24
581.93	1621.99
582.13	1763.30
582.33	1687.53
582.53	1607.66
582.73	1708.01
582.92	1642.47
583.12	1675.24
583.32	1652.71
583.52	1675.24
583.72	1761.25
583.92	1740.77
584.12	1728.49
584.32	1695.72
584.52	1660.90
584.72	1667.05
584.92	1621.99
585.11	1685.48
585.31	1691.62
585.51	1689.57
585.71	1732.58
585.91	1757.16
586.11	1683.43
586.31	1699.81
586.51	1726.44
586.71	1759.21
586.91	1636.33
587.10	1771.49
587.30	1804.26
587.50	1701.86
587.70	1630.18
587.90	1757.16
588.10	1650.66
588.30	1658.85
588.50	1716.20
588.69	1740.77
588.89	1718.25
589.09	1716.20
589.29	1650.66
589.49	1640.42
589.69	1621.99
589.89	1744.87
590.08	1601.51
590.28	1640.42
590.48	1720.29
590.68	1794.02
590.88	1665.00
591.08	1724.39
591.28	1662.95
591.47	1652.71
591.67	1556.46
591.87	1722.34
592.07	1759.21
592.27	1568.74
592.47	1605.61
592.67	1699.81
592.86	1591.27
593.06	1744.87
593.26	1751.01
593.46	1724.39
593.66	1644.52
593.86	1761.25
594.05	1683.43
594.25	1689.57
594.45	1705.96
594.65	1800.16
594.85	1763.30
595.05	1691.62
595.24	1675.24
595.44	1658.85
595.64	1675.24
595.84	1712.10
596.04	1710.05
596.23	1675.24
596.43	1640.42
596.63	1722.34
596.83	1662.95
597.03	1820.64
597.22	1681.38
597.42	1732.58
597.62	1673.19
597.82	1697.77
598.02	1794.02
598.21	1673.19
598.41	1712.10
598.61	1673.19
598.81	1695.72
599.01	1673.19
599.20	1734.63
599.40	1685.48
599.60	1673.19
599.80	1642.47
600.00	1802.21
600.19	1738.73
600.39	1662.95
600.59	1689.57
600.79	1771.49
600.98	1662.95
601.18	1738.73
601.38	1726.44
601.58	1718.25
601.78	1716.20
601.97	1865.70
602.17	1785.83
602.37	1630.18
602.57	1687.53
602.76	1691.62
602.96	1658.85
603.16	1626.09
603.36	1798.12
603.55	1763.30
603.75	1669.09
603.95	1701.86
604.15	1736.68
604.34	1679.33
604.54	1632.23
604.74	1732.58
604.94	1675.24
605.13	1644.52
605.33	1685.48
605.53	1650.66
605.73	1667.05
605.92	1748.97
606.12	1652.71
606.32	1691.62
606.52	1781.73
606.71	1712.10
606.91	1667.05
607.11	1640.42
607.30	1732.58
607.50	1685.48
607.70	1695.72
607.90	1757.16
608.09	1576.94
608.29	1730.53
608.49	1757.16
608.68	1665.00
608.88	1687.53
609.08	1697.77
609.28	1740.77
609.47	1624.04
609.67	1708.01
609.87	1710.05
610.06	1748.97
610.26	1746.92
610.46	1798.12
610.66	1613.80
610.85	1609.70
611.05	1773.54
611.25	1734.63
611.44	1665.00
611.64	1732.58
611.84	1683.43
612.03	1695.72
612.23	1648.61
612.43	1796.07
612.62	1681.38
612.82	1732.58
613.02	1751.01
613.21	1716.20
613.41	1785.83
613.61	1658.85
613.80	1712.10
614.00	1683.43
614.20	1761.25
614.39	1839.08
614.59	1712.10
614.79	1634.28
614.98	1744.87
615.18	1705.96
615.38	1685.48
615.57	1673.19
615.77	1855.46
615.97	1708.01
616.16	1708.01
616.36	1781.73
616.56	1716.20
616.75	1705.96
616.95	1611.75
617.15	1765.35
617.34	1708.01
617.54	1773.54
617.74	1851.36
617.93	1832.93
618.13	1673.19
618.32	1667.05
618.52	1769.44
618.72	1699.81
618.91	1679.33
619.11	1787.88
619.31	1748.97
619.50	1644.52
619.70	1685.48
619.90	1648.61
620.09	1665.00
620.29	1716.20
620.48	1818.60
620.68	1744.87
620.88	1759.21
621.07	1720.29
621.27	1705.96
621.46	1751.01
621.66	1685.48
621.86	1773.54
622.05	1638.38
622.25	1851.36
622.44	1636.33
622.64	1748.97
622.84	1683.43
623.03	1605.61
623.23	1722.34
623.42	1742.82
623.62	1716.20
623.82	1740.77
624.01	1708.01
624.21	1689.57
624.40	1798.12
624.60	1609.70
624.80	1710.05
624.99	1722.34
625.19	1718.25
625.38	1658.85
625.58	1757.16
625.77	1738.73
625.97	1701.86
626.17	1699.81
626.36	1691.62
626.56	1765.35
626.75	1634.28
626.95	1730.53
627.14	1699.81
627.34	1732.58
627.54	1832.93
627.73	1787.88
627.93	1740.77
628.12	1724.39
628.32	1746.92
628.51	1701.86
628.71	1828.84
628.90	1740.77
629.10	1671.14
629.30	1699.81
629.49	1730.53
629.69	1695.72
629.88	1665.00
630.08	1728.49
630.27	1851.36
630.47	1730.53
630.66	1687.53
630.86	1679.33
631.05	1648.61
631.25	1621.99
631.44	1804.26
631.64	1654.76
631.84	1662.95
632.03	1708.01
632.23	1726.44
632.42	1677.29
632.62	1634.28
632.81	1675.24
633.01	1730.53
633.20	1775.59
633.40	1810.40
633.59	1689.57
633.79	1679.33
633.98	1689.57
634.18	1691.62
634.37	1806.31
634.57	1646.57
634.76	1685.48
634.96	1773.54
635.15	1830.88
635.35	1728.49
635.54	1730.53
635.74	1710.05
635.93	1558.50
636.13	1724.39
636.32	1763.30
636.52	1699.81
636.71	1656.81
636.91	1703.91
637.10	1757.16
637.30	1718.25
637.49	1722.34
637.69	1728.49
637.88	1689.57
638.08	1767.40
638.27	1703.91
638.46	1722.34
638.66	1671.14
638.85	1574.89
639.05	1808.36
639.24	1736.68
639.44	1677.29
639.63	1738.73
639.83	1746.92
640.02	1685.48
640.22	1685.48
640.41	1665.00
640.61	1685.48
640.80	1652.71
640.99	1693.67
641.19	1769.44
641.38	1820.64
641.58	1695.72
641.77	1613.80
641.97	1644.52
642.16	1730.53
642.36	1746.92
642.55	1771.49
642.74	1716.20
642.94	1714.15
643.13	1621.99
643.33	1714.15
643.52	1732.58
643.72	1722.34
643.91	1630.18
644.10	1806.31
644.30	1673.19
644.49	1748.97
644.69	1734.63
644.88	1738.73
645.08	1701.86
645.27	1757.16
645.46	1585.13
645.66	1726.44
645.85	1687.53
646.05	1738.73
646.24	1679.33
646.43	1687.53
646.63	1740.77
646.82	1662.95
647.02	1771.49
647.21	1855.46
647.40	1689.57
647.60	1603.56
647.79	1802.21
647.99	1642.47
648.18	1708.01
648.37	1828.84
648.57	1708.01
648.76	1708.01
648.96	1708.01
649.15	1708.01
649.34	1800.16
649.54	1732.58
649.73	1636.33
649.92	1705.96
650.12	1671.14
650.31	1697.77
650.51	1910.75
650.70	1675.24
650.89	1753.06
651.09	1732.58
651.28	1798.12
651.47	1591.27
651.67	1691.62
651.86	1789.92
652.06	1652.71
652.25	1693.67
652.44	1529.83
652.64	1691.62
652.83	1695.72
653.02	1775.59
653.22	1738.73
653.41	1654.76
653.60	1728.49
653.80	1683.43
653.99	1755.11
654.18	1634.28
654.38	1679.33
654.57	1771.49
654.76	1701.86
654.96	1708.01
655.15	1560.55
655.34	1736.68
655.54	1626.09
655.73	1654.76
655.92	1697.77
656.12	1665.00
656.31	1798.12
656.50	1796.07
656.70	1656.81
656.89	1691.62
657.08	1613.80
657.28	1769.44
657.47	1681.38
657.66	1677.29
657.86	1705.96
658.05	1771.49
658.24	1693.67
658.43	1757.16
658.63	1636.33
658.82	1755.11
659.01	1808.36
659.21	1740.77
659.40	1724.39
659.59	1734.63
659.79	1665.00
659.98	1843.17
660.17	1675.24
660.36	1759.21
660.56	1777.64
660.75	1734.63
660.94	1730.53
661.14	1634.28
661.33	1613.80
661.52	1581.03
661.71	1705.96
661.91	1628.14
662.10	1687.53
662.29	1648.61
662.49	1621.99
662.68	1689.57
662.87	1597.42
663.06	1710.05
663.26	1658.85
663.45	1806.31
663.64	1640.42
663.83	1658.85
664.03	1818.60
664.22	1763.30
664.41	1769.44
664.60	1687.53
664.80	1685.48
664.99	1693.67
665.18	1820.64
665.37	1669.09
665.57	1726.44
665.76	1599.46
665.95	1689.57
666.14	1685.48
666.34	1699.81
666.53	1677.29
666.72	1654.76
666.91	1646.57
667.11	1681.38
667.30	1912.80
667.49	1775.59
667.68	1818.60
667.87	1687.53
668.07	1777.64
668.26	1642.47
668.45	1613.80
668.64	1650.66
668.84	1789.92
669.03	1656.81
669.22	1755.11
669.41	1718.25
669.60	1630.18
669.80	1851.36
669.99	1701.86
670.18	1722.34
670.37	1697.77
670.57	1720.29
670.76	1701.86
670.95	1748.97
671.14	1675.24
671.33	1769.44
671.53	1785.83
671.72	1730.53
671.91	1724.39
672.10	1650.66
672.29	1722.34
672.48	1648.61
672.68	1708.01
672.87	1585.13
673.06	1740.77
673.25	1710.05
673.44	1667.05
673.64	1574.89
673.83	1716.20
674.02	1654.76
674.21	1724.39
674.40	1703.91
674.59	1662.95
674.79	1683.43
674.98	1810.40
675.17	1757.16
675.36	1611.75
675.55	1730.53
675.74	1564.65
675.94	1884.13
676.13	1775.59
676.32	1683.43
676.51	1671.14
676.70	1626.09
676.89	1767.40
677.08	1734.63
677.28	1843.17
677.47	1712.10
677.66	1769.44
677.85	1656.81
678.04	1705.96
678.23	1783.78
678.42	1671.14
678.62	1648.61
678.81	1669.09
679.00	1693.67
679.19	1806.31
679.38	1753.06
679.57	1644.52
679.76	1708.01
679.96	1714.15
680.15	1720.29
680.34	1726.44
680.53	1726.44
680.72	1728.49
680.91	1699.81
681.10	1791.97
681.29	1722.34
681.48	1796.07
681.68	1660.90
681.87	1839.08
682.06	1640.42
682.25	1830.88
682.44	1558.50
682.63	1716.20
682.82	1636.33
683.01	1765.35
683.20	1691.62
683.39	1822.69
683.59	1708.01
683.78	1685.48
683.97	1699.81
684.16	1605.61
684.35	1658.85
684.54	1744.87
684.73	1621.99
684.92	1658.85
685.11	1720.29
685.30	1763.30
685.49	1730.53
685.69	1798.12
685.88	1591.27
686.07	1687.53
686.26	1705.96
686.45	1703.91
686.64	1761.25
686.83	1691.62
687.02	1689.57
687.21	1814.50
687.40	1693.67
687.59	1871.84
687.78	1710.05
687.97	1812.45
688.16	1828.84
688.35	1691.62
688.54	1673.19
688.74	1564.65
688.93	1689.57
689.12	1671.14
689.31	1804.26
689.50	1755.11
689.69	1644.52
689.88	1695.72
690.07	1703.91
690.26	1728.49
690.45	1628.14
690.64	1703.91
690.83	1599.46
691.02	1640.42
691.21	1691.62
691.40	1683.43
691.59	1607.66
691.78	1746.92
691.97	1656.81
692.16	1583.08
692.35	1794.02
692.54	1746.92
692.73	1607.66
692.92	1753.06
693.11	1703.91
693.30	1726.44
693.49	1658.85
693.68	1738.73
693.87	1708.01
694.06	1665.00
694.25	1675.24
694.44	1716.20
694.63	1650.66
694.82	1677.29
695.01	1667.05
695.20	1650.66
695.39	1632.23
695.58	1734.63
695.77	1619.94
695.96	1728.49
696.15	1716.20
696.34	1613.80
696.53	1593.32
696.72	1691.62
696.91	1667.05
697.10	1769.44
697.29	1656.81
697.48	1865.70
697.67	1732.58
697.86	1607.66
698.05	1712.10
698.24	1740.77
698.43	1658.85
698.62	1689.57
698.81	1683.43
699.00	1665.00
699.19	1699.81
699.38	1603.56
699.57	1685.48
699.76	1693.67
699.95	1724.39
700.14	1601.51
700.32	1718.25
700.51	1689.57
700.70	1718.25
700.89	1736.68
701.08	1800.16
701.27	1681.38
701.46	1757.16
701.65	1720.29
701.84	1624.04
702.03	1628.14
702.22	1742.82
702.41	1781.73
702.60	1718.25
702.79	1703.91
702.98	1652.71
703.17	1822.69
703.35	1683.43
703.54	1650.66
703.73	1773.54
703.92	1611.75
704.11	1705.96
704.30	1746.92
704.49	1732.58
704.68	1714.15
704.87	1681.38
705.06	1744.87
705.25	1583.08
705.43	1630.18
705.62	1708.01
705.81	1748.97
706.00	1615.85
706.19	1656.81
706.38	1628.14
706.57	1730.53
706.76	1603.56
706.95	1701.86
707.14	1724.39
707.32	1619.94
707.51	1570.79
707.70	1675.24
707.89	1681.38
708.08	1681.38
708.27	1658.85
708.46	1679.33
708.65	1560.55
708.84	1757.16
709.02	1701.86
709.21	1535.98
709.40	1699.81
709.59	1744.87
709.78	1720.29
709.97	1621.99
710.16	1685.48
710.34	1609.70
710.53	1675.24
710.72	1724.39
710.91	1691.62
711.10	1624.04
711.29	1708.01
711.48	1740.77
711.66	1650.66
711.85	1644.52
712.04	1755.11
712.23	1669.09
712.42	1708.01
712.61	1751.01
712.80	1624.04
712.98	1626.09
713.17	1679.33
713.36	1710.05
713.55	1695.72
713.74	1773.54
713.93	1710.05
714.11	1714.15
714.30	1613.80
714.49	1699.81
714.68	1646.57
714.87	1624.04
715.06	1791.97
715.24	1767.40
715.43	1701.86
715.62	1583.08
715.81	1566.70
716.00	1660.90
716.18	1646.57
716.37	1699.81
716.56	1617.90
716.75	1681.38
716.94	1699.81
717.12	1738.73
717.31	1687.53
717.50	1595.37
717.69	1697.77
717.88	1732.58
718.06	1683.43
718.25	1740.77
718.44	1611.75
718.63	1740.77
718.82	1595.37
719.00	1658.85
719.19	1837.03
719.38	1630.18
719.57	1646.57
719.76	1697.77
719.94	1679.33
720.13	1746.92
720.32	1757.16
720.51	1628.14
720.69	1708.01
720.88	1781.73
721.07	1718.25
721.26	1734.63
721.44	1753.06
721.63	1667.05
721.82	1673.19
722.01	1767.40
722.20	1679.33
722.38	1714.15
722.57	1562.60
722.76	1714.15
722.95	1634.28
723.13	1712.10
723.32	1746.92
723.51	1683.43
723.70	1751.01
723.88	1806.31
724.07	1665.00
724.26	1761.25
724.44	1691.62
724.63	1814.50
724.82	1693.67
725.01	1753.06
725.19	1714.15
725.38	1671.14
725.57	1632.23
725.76	1740.77
725.94	1660.90
726.13	1710.05
726.32	1601.51
726.51	1607.66
726.69	1599.46
726.88	1667.05
727.07	1736.68
727.25	1662.95
727.44	1703.91
727.63	1624.04
727.82	1617.90
728.00	1681.38
728.19	1669.09
728.38	1599.46
728.56	1560.55
728.75	1740.77
728.94	1742.82
729.12	1646.57
729.31	1687.53
729.50	1630.18
729.69	1687.53
729.87	1724.39
730.06	1691.62
730.25	1667.05
730.43	1794.02
730.62	1732.58
730.81	1673.19
730.99	1665.00
731.18	1667.05
731.37	1646.57
731.55	1757.16
731.74	1757.16
731.93	1683.43
732.11	1632.23
732.30	1730.53
732.49	1667.05
732.67	1644.52
732.86	1552.36
733.05	1632.23
733.23	1751.01
733.42	1710.05
733.61	1689.57
733.79	1683.43
733.98	1644.52
734.17	1617.90
734.35	1716.20
734.54	1769.44
734.73	1773.54
734.91	1624.04
735.10	1710.05
735.29	1763.30
735.47	1517.54
735.66	1585.13
735.84	1779.68
736.03	1597.42
736.22	1613.80
736.40	1665.00
736.59	1480.68
736.78	1658.85
736.96	1703.91
737.15	1728.49
737.33	1703.91
737.52	1615.85
737.71	1710.05
737.89	1695.72
738.08	1648.61
738.27	1748.97
738.45	1751.01
738.64	1748.97
738.82	1658.85
739.01	1742.82
739.20	1691.62
739.38	1701.86
739.57	1638.38
739.75	1740.77
739.94	1708.01
740.13	1519.59
740.31	1689.57
740.50	1714.15
740.68	1734.63
740.87	1675.24
741.06	1746.92
741.24	1826.79
741.43	1650.66
741.61	1628.14
741.80	1640.42
741.99	1724.39
742.17	1691.62
742.36	1583.08
742.54	1636.33
742.73	1775.59
742.91	1646.57
743.10	1681.38
743.29	1728.49
743.47	1683.43
743.66	1642.47
743.84	1626.09
744.03	1701.86
744.21	1679.33
744.40	1691.62
744.59	1628.14
744.77	1656.81
744.96	1632.23
745.14	1626.09
745.33	1736.68
745.51	1683.43
745.70	1691.62
745.88	1777.64
746.07	1650.66
746.26	1648.61
746.44	1603.56
746.63	1593.32
746.81	1716.20
747.00	1746.92
747.18	1697.77
747.37	1566.70
747.55	1798.12
747.74	1970.15
747.92	1646.57
748.11	1712.10
748.29	1642.47
748.48	1763.30
748.66	1693.67
748.85	1734.63
749.03	1744.87
749.22	1646.57
749.41	1621.99
749.59	1726.44
749.78	1724.39
749.96	1632.23
750.15	1660.90
750.33	1769.44
750.52	1710.05
750.70	1650.66
750.89	1683.43
751.07	1617.90
751.26	1744.87
751.44	1558.50
751.63	1673.19
751.81	1593.32
752.00	1634.28
752.18	1703.91
752.37	1785.83
752.55	1662.95
752.74	1581.03
752.92	1708.01
753.10	1693.67
753.29	1640.42
753.47	1738.73
753.66	1591.27
753.84	1640.42
754.03	1578.98
754.21	1724.39
754.40	1693.67
754.58	1730.53
754.77	1773.54
754.95	1712.10
755.14	1699.81
755.32	1667.05
755.51	1599.46
755.69	1673.19
755.88	1611.75
756.06	1720.29
756.24	1693.67
756.43	1636.33
756.61	1716.20
756.80	1613.80
756.98	1656.81
757.17	1699.81
757.35	1699.81
757.54	1652.71
757.72	1671.14
757.90	1683.43
758.09	1675.24
758.27	1677.29
758.46	1626.09
758.64	1775.59
758.83	1638.38
759.01	1685.48
759.19	1730.53
759.38	1683.43
759.56	1753.06
759.75	1591.27
759.93	1734.63
760.12	1628.14
760.30	1683.43
760.48	1691.62
760.67	1667.05
760.85	1634.28
761.04	1677.29
761.22	1683.43
761.40	1648.61
761.59	1689.57
761.77	1660.90
761.96	1597.42
762.14	1673.19
762.32	1712.10
762.51	1773.54
762.69	1652.71
762.88	1742.82
763.06	1615.85
763.24	1587.18
763.43	1644.52
763.61	1732.58
763.80	1705.96
763.98	1730.53
764.16	1593.32
764.35	1603.56
764.53	1585.13
764.72	1671.14
764.90	1697.77
765.08	1705.96
765.27	1705.96
765.45	1591.27
765.63	1671.14
765.82	1755.11
766.00	1626.09
766.18	1699.81
766.37	1673.19
766.55	1646.57
766.74	1718.25
766.92	1628.14
767.10	1642.47
767.29	1759.21
767.47	1652.71
767.65	1624.04
767.84	1687.53
768.02	1761.25
768.20	1691.62
768.39	1687.53
768.57	1646.57
768.75	1683.43
768.94	1828.84
769.12	1636.33
769.30	1648.61
769.49	1701.86
769.67	1763.30
769.85	1779.68
770.04	1603.56
770.22	1617.90
770.40	1703.91
770.59	1724.39
770.77	1779.68
770.95	1798.12
771.14	1728.49
771.32	1634.28
771.50	1660.90
771.69	1636.33
771.87	1603.56
772.05	1593.32
772.24	1585.13
772.42	1781.73
772.60	1652.71
772.78	1695.72
772.97	1499.11
773.15	1716.20
773.33	1652.71
773.52	1675.24
773.70	1742.82
773.88	1726.44
774.07	1644.52
774.25	1570.79
774.43	1687.53
774.61	1658.85
774.80	1693.67
774.98	1705.96
775.16	1619.94
775.34	1599.46
775.53	1712.10
775.71	1675.24
775.89	1689.57
776.08	1607.66
776.26	1718.25
776.44	1712.10
776.62	1689.57
776.81	1611.75
776.99	1744.87
777.17	1777.64
777.35	1681.38
777.54	1685.48
777.72	1662.95
777.90	1673.19
778.08	1703.91
778.27	1720.29
778.45	1599.46
778.63	1683.43
778.81	1669.09
779.00	1703.91
779.18	1681.38
779.36	1708.01
779.54	1722.34
779.73	1699.81
779.91	1654.76
780.09	1654.76
780.27	1675.24
780.46	1740.77
780.64	1634.28
780.82	1613.80
781.00	1691.62
781.19	1591.27
781.37	1650.66
781.55	1757.16
781.73	1630.18
781.91	1652.71
782.10	1669.09
782.28	1689.57
782.46	1613.80
782.64	1695.72
782.82	1701.86
783.01	1650.66
783.19	1773.54
783.37	1703.91
783.55	1630.18
783.74	1581.03
783.92	1626.09
784.10	1644.52
784.28	1638.38
784.46	1617.90
784.64	1570.79
784.83	1677.29
785.01	1742.82
785.19	1730.53
785.37	1800.16
785.55	1701.86
785.74	1619.94
785.92	1732.58
786.10	1642.47
786.28	1738.73
786.46	1753.06
786.64	1681.38
786.83	1583.08
787.01	1724.39
787.19	1775.59
787.37	1703.91
787.55	1636.33
787.74	1619.94
787.92	1572.84
788.10	1619.94
788.28	1636.33
788.46	1658.85
788.64	1744.87
788.82	1693.67
789.01	1687.53
789.19	1732.58
789.37	1724.39
789.55	1691.62
789.73	1624.04
789.91	1691.62
790.09	1667.05
790.28	1673.19
790.46	1603.56
790.64	1658.85
790.82	1667.05
791.00	1687.53
791.18	1630.18
791.36	1648.61
791.55	1685.48
791.73	1630.18
791.91	1599.46
792.09	1724.39
792.27	1542.12
792.45	1667.05
792.63	1744.87
792.81	1585.13
793.00	1648.61
793.18	1660.90
793.36	1759.21
793.54	1691.62
793.72	1669.09
793.90	1718.25
794.08	1603.56
794.26	1708.01
794.44	1544.17
794.62	1650.66
794.81	1638.38
794.99	1728.49
795.17	1675.24
795.35	1628.14
795.53	1650.66
795.71	1689.57
795.89	1660.90
796.07	1681.38
796.25	1677.29
796.43	1677.29
796.61	1667.05
796.80	1679.33
796.98	1644.52
797.16	1665.00
797.34	1560.55
797.52	1617.90
797.70	1740.77
797.88	1699.81
798.06	1642.47
798.24	1781.73
798.42	1609.70
798.60	1660.90
798.78	1689.57
798.96	1765.35
799.14	1654.76
799.32	1722.34
799.51	1613.80
799.69	1654.76
799.87	1732.58
800.05	1742.82
800.23	1585.13
800.41	1654.76
800.59	1728.49
800.77	1669.09
800.95	1544.17
801.13	1761.25
801.31	1744.87
801.49	1759.21
801.67	1636.33
801.85	1662.95
802.03	1624.04
802.21	1708.01
802.39	1531.88
802.57	1673.19
802.75	1843.17
802.93	1695.72
803.11	1626.09
803.29	1619.94
803.47	1744.87
803.65	1632.23
803.83	1644.52
804.01	1642.47
804.19	1669.09
804.37	1634.28
804.55	1644.52
804.73	1742.82
804.91	1568.74
805.09	1738.73
805.27	1714.15
805.45	1675.24
805.63	1632.23
805.81	1712.10
805.99	1738.73
806.17	1658.85
806.35	1624.04
806.53	1667.05
806.71	1755.11
806.89	1646.57
807.07	1705.96
807.25	1636.33
807.43	1591.27
807.61	1722.34
807.79	1669.09
807.97	1619.94
808.15	1669.09
808.33	1667.05
808.51	1712.10
808.69	1648.61
808.87	1615.85
809.05	1632.23
809.23	1601.51
809.41	1556.46
809.59	1556.46
809.77	1765.35
809.95	1648.61
810.13	1794.02
810.31	1697.77
810.49	1662.95
810.67	1662.95
810.84	1720.29
811.02	1652.71
811.20	1597.42
811.38	1697.77
811.56	1609.70
811.74	1673.19
811.92	1679.33
812.10	1675.24
812.28	1677.29
812.46	1699.81
812.64	1679.33
812.82	1599.46
813.00	1689.57
813.18	1628.14
813.36	1746.92
813.53	1646.57
813.71	1742.82
813.89	1714.15
814.07	1609.70
814.25	1685.48
814.43	1662.95
814.61	1626.09
814.79	1626.09
814.97	1695.72
815.15	1650.66
815.33	1591.27
815.50	1652.71
815.68	1650.66
815.86	1648.61
816.04	1617.90
816.22	1656.81
816.40	1697.77
816.58	1662.95
816.76	1619.94
816.94	1697.77
817.11	1630.18
817.29	1669.09
817.47	1599.46
817.65	1699.81
817.83	1615.85
818.01	1535.98
818.19	1597.42
818.37	1578.98
818.54	1730.53
818.72	1724.39
818.90	1689.57
819.08	1677.29
819.26	1675.24
819.44	1718.25
819.62	1693.67
819.80	1642.47
819.97	1697.77
820.15	1572.84
820.33	1611.75
820.51	1650.66
820.69	1652.71
820.87	1665.00
821.05	1765.35
821.22	1636.33
821.40	1642.47
821.58	1693.67
821.76	1638.38
821.94	1544.17
822.12	1687.53
822.29	1640.42
822.47	1574.89
822.65	1732.58
822.83	1597.42
823.01	1644.52
823.19	1626.09
823.36	1587.18
823.54	1654.76
823.72	1658.85
823.90	1720.29
824.08	1665.00
824.25	1687.53
824.43	1589.22
824.61	1630.18
824.79	1671.14
824.97	1568.74
825.15	1642.47
825.32	1665.00
825.50	1646.57
825.68	1578.98
825.86	1744.87
826.04	1658.85
826.21	1658.85
826.39	1679.33
826.57	1634.28
826.75	1708.01
826.93	1697.77
827.10	1673.19
827.28	1628.14
827.46	1724.39
827.64	1665.00
827.81	1683.43
827.99	1576.94
828.17	1699.81
828.35	1576.94
828.53	1621.99
828.70	1703.91
828.88	1654.76
829.06	1681.38
829.24	1632.23
829.41	1634.28
829.59	1753.06
829.77	1603.56
829.95	1744.87
830.12	1599.46
830.30	1675.24
830.48	1601.51
830.66	1685.48
830.84	1634.28
831.01	1697.77
831.19	1585.13
831.37	1701.86
831.55	1712.10
831.72	1759.21
831.90	1638.38
832.08	1648.61
832.25	1689.57
832.43	1710.05
832.61	1724.39
832.79	1581.03
832.96	1714.15
833.14	1665.00
833.32	1708.01
833.50	1671.14
833.67	1667.05
833.85	1587.18
834.03	1576.94
834.20	1628.14
834.38	1785.83
834.56	1675.24
834.74	1550.31
834.91	1650.66
835.09	1724.39
835.27	1609.70
835.44	1609.70
835.62	1587.18
835.80	1587.18
835.98	1607.66
836.15	1689.57
836.33	1619.94
836.51	1568.74
836.68	1554.41
836.86	1716.20
837.04	1681.38
837.21	1716.20
837.39	1646.57
837.57	1767.40
837.75	1662.95
837.92	1617.90
838.10	1544.17
838.28	1712.10
838.45	1705.96
838.63	1572.84
838.81	1669.09
838.98	1652.71
839.16	1728.49
839.34	1568.74
839.51	1595.37
839.69	1531.88
839.87	1652.71
840.04	1644.52
840.22	1849.32
840.40	1566.70
840.57	1626.09
840.75	1617.90
840.93	1585.13
841.10	1605.61
841.28	1742.82
841.46	1630.18
841.63	1681.38
841.81	1562.60
841.98	1589.22
842.16	1699.81
842.34	1593.32
842.51	1607.66
842.69	1667.05
842.87	1658.85
843.04	1654.76
843.22	1607.66
843.40	1591.27
843.57	1619.94
843.75	1574.89
843.92	1656.81
844.10	1675.24
844.28	1691.62
844.45	1691.62
844.63	1667.05
844.81	1681.38
844.98	1699.81
845.16	1677.29
845.33	1687.53
845.51	1667.05
845.69	1679.33
845.86	1761.25
846.04	1630.18
846.21	1675.24
846.39	1667.05
846.57	1609.70
846.74	1624.04
846.92	1648.61
847.09	1669.09
847.27	1544.17
847.45	1640.42
847.62	1689.57
847.80	1593.32
847.97	1699.81
848.15	1593.32
848.32	1593.32
848.50	1658.85
848.68	1638.38
848.85	1662.95
849.03	1581.03
849.20	1607.66
849.38	1642.47
849.56	1656.81
849.73	1628.14
849.91	1648.61
850.08	1740.77
850.26	1486.83
850.43	1597.42
850.61	1771.49
850.78	1525.74
850.96	1679.33
851.14	1574.89
851.31	1744.87
851.49	1642.47
851.66	1685.48
851.84	1581.03
852.01	1650.66
852.19	1605.61
852.36	1708.01
852.54	1621.99
852.71	1595.37
852.89	1644.52
853.07	1570.79
853.24	1619.94
853.42	1667.05
853.59	1640.42
853.77	1617.90
853.94	1677.29
854.12	1736.68
854.29	1566.70
854.47	1628.14
854.64	1626.09
854.82	1708.01
854.99	1650.66
855.17	1685.48
855.34	1601.51
855.52	1685.48
855.69	1771.49
855.87	1619.94
856.04	1654.76
856.22	1677.29
856.39	1601.51
856.57	1624.04
856.74	1650.66
856.92	1705.96
857.09	1648.61
857.27	1650.66
857.44	1726.44
857.62	1716.20
857.79	1679.33
857.97	1650.66
858.14	1634.28
858.32	1671.14
858.49	1703.91
858.67	1697.77
858.84	1603.56
859.02	1632.23
859.19	1585.13
859.37	1583.08
859.54	1613.80
859.72	1599.46
859.89	1591.27
860.06	1535.98
860.24	1644.52
860.41	1712.10
860.59	1628.14
860.76	1613.80
860.94	1581.03
861.11	1640.42
861.29	1656.81
861.46	1644.52
861.64	1720.29
861.81	1708.01
861.98	1613.80
862.16	1675.24
862.33	1605.61
862.51	1619.94
862.68	1742.82
862.86	1630.18
863.03	1615.85
863.21	1603.56
863.38	1628.14
863.55	1628.14
863.73	1646.57
863.90	1667.05
864.08	1697.77
864.25	1701.86
864.43	1732.58
864.60	1630.18
864.77	1562.60
864.95	1632.23
865.12	1626.09
865.30	1642.47
865.47	1656.81
865.64	1691.62
865.82	1654.76
865.99	1693.67
866.17	1681.38
866.34	1650.66
866.51	1595.37
866.69	1685.48
866.86	1771.49
867.04	1662.95
867.21	1732.58
867.38	1634.28
867.56	1683.43
867.73	1695.72
867.91	1656.81
868.08	1679.33
868.25	1628.14
868.43	1632.23
868.60	1613.80
868.78	1490.92
868.95	1665.00
869.12	1724.39
869.30	1650.66
869.47	1669.09
869.64	1638.38
869.82	1607.66
869.99	1703.91
870.16	1691.62
870.34	1791.97
870.51	1755.11
870.69	1538.02
870.86	1667.05
871.03	1689.57
871.21	1634.28
871.38	1648.61
871.55	1687.53
871.73	1601.51
871.90	1667.05
872.07	1695.72
872.25	1531.88
872.42	1507.30
872.59	1562.60
872.77	1581.03
872.94	1621.99
873.11	1613.80
873.29	1755.11
873.46	1603.56
873.63	1611.75
873.81	1615.85
873.98	1728.49
874.15	1558.50
874.33	1642.47
874.50	1673.19
874.67	1703.91
874.85	1617.90
875.02	1570.79
875.19	1591.27
875.37	1560.55
875.54	1587.18
875.71	1681.38
875.88	1630.18
876.06	1650.66
876.23	1675.24
876.40	1687.53
876.58	1703.91
876.75	1658.85
876.92	1574.89
877.10	1658.85
877.27	1591.27
877.44	1593.32
877.61	1642.47
877.79	1722.34
877.96	1724.39
878.13	1722.34
878.31	1607.66
878.48	1656.81
878.65	1656.81
878.82	1556.46
879.00	1632.23
879.17	1679.33
879.34	1601.51
879.51	1605.61
879.69	1687.53
879.86	1568.74
880.03	1628.14
880.21	1630.18
880.38	1644.52
880.55	1834.98
880.72	1701.86
880.90	1615.85
881.07	1624.04
881.24	1716.20
881.41	1626.09
881.59	1716.20
881.76	1685.48
881.93	1746.92
882.10	1660.90
882.28	1628.14
882.45	1650.66
882.62	1671.14
882.79	1570.79
882.96	1605.61
883.14	1630.18
883.31	1722.34
883.48	1566.70
883.65	1609.70
883.83	1621.99
884.00	1693.67
884.17	1576.94
884.34	1689.57
884.51	1734.63
884.69	1658.85
884.86	1638.38
885.03	1669.09
885.20	1515.50
885.38	1710.05
885.55	1619.94
885.72	1630.18
885.89	1529.83
886.06	1691.62
886.24	1646.57
886.41	1662.95
886.58	1720.29
886.75	1693.67
886.92	1636.33
887.10	1611.75
887.27	1583.08
887.44	1724.39
887.61	1814.50
887.78	1660.90
887.95	1732.58
888.13	1605.61
888.30	1634.28
888.47	1621.99
888.64	1724.39
888.81	1701.86
888.99	1591.27
889.16	1691.62
889.33	1656.81
889.50	1740.77
889.67	1671.14
889.84	1691.62
890.01	1755.11
890.19	1665.00
890.36	1630.18
890.53	1628.14
890.70	1593.32
890.87	1671.14
891.04	1597.42
891.22	1613.80
891.39	1597.42
891.56	1683.43
891.73	1632.23
891.90	1632.23
892.07	1501.16
892.24	1619.94
892.42	1617.90
892.59	1646.57
892.76	1683.43
892.93	1591.27
893.10	1665.00
893.27	1757.16
893.44	1546.22
893.61	1581.03
893.79	1673.19
893.96	1597.42
894.13	1581.03
894.30	1619.94
894.47	1656.81
894.64	1746.92
894.81	1656.81
894.98	1601.51
895.15	1685.48
895.33	1794.02
895.50	1589.22
895.67	1619.94
895.84	1695.72
896.01	1642.47
896.18	1576.94
896.35	1753.06
896.52	1714.15
896.69	1642.47
896.86	1632.23
897.04	1708.01
897.21	1613.80
897.38	1728.49
897.55	1583.08
897.72	1699.81
897.89	1619.94
898.06	1738.73
898.23	1662.95
898.40	1638.38
898.57	1662.95
898.74	1671.14
898.91	1613.80
899.08	1601.51
899.26	1697.77
899.43	1689.57
899.60	1605.61
899.77	1712.10
899.94	1583.08
900.11	1656.81
900.28	1617.90
900.45	1615.85
900.62	1665.00
900.79	1640.42
900.96	1687.53
901.13	1542.12
901.30	1638.38
901.47	1544.17
901.64	1642.47
901.81	1689.57
901.98	1605.61
902.15	1716.20
902.32	1560.55
902.49	1658.85
902.66	1712.10
902.83	1681.38
903.01	1564.65
903.18	1667.05
903.35	1548.26
903.52	1662.95
903.69	1671.14
903.86	1654.76
904.03	1585.13
904.20	1652.71
904.37	1662.95
904.54	1558.50
904.71	1648.61
904.88	1665.00
905.05	1626.09
905.22	1660.90
905.39	1501.16
905.56	1503.21
905.73	1585.13
905.90	1568.74
906.07	1658.85
906.24	1695.72
906.41	1654.76
906.58	1685.48
906.75	1597.42
906.92	1609.70
907.09	1611.75
907.26	1720.29
907.43	1503.21
907.60	1679.33
907.77	1675.24
907.93	1671.14
908.10	1650.66
908.27	1751.01
908.44	1589.22
908.61	1576.94
908.78	1585.13
908.95	1716.20
909.12	1632.23
909.29	1603.56
909.46	1638.38
909.63	1687.53
909.80	1570.79
909.97	1712.10
910.14	1683.43
910.31	1626.09
910.48	1642.47
910.65	1609.70
910.82	1675.24
910.99	1603.56
911.16	1634.28
911.33	1667.05
911.50	1624.04
911.66	1624.04
911.83	1656.81
912.00	1585.13
912.17	1554.41
912.34	1595.37
912.51	1650.66
912.68	1544.17
912.85	1603.56
913.02	1736.68
913.19	1644.52
913.36	1730.53
913.53	1701.86
913.70	1714.15
913.86	1732.58
914.03	1632.23
914.20	1640.42
914.37	1648.61
914.54	1624.04
914.71	1716.20
914.88	1697.77
915.05	1673.19
915.22	1634.28
915.39	1644.52
915.55	1626.09
915.72	1576.94
915.89	1574.89
916.06	1615.85
916.23	1589.22
916.40	1656.81
916.57	1562.60
916.74	1679.33
916.91	1675.24
917.07	1667.05
917.24	1560.55
917.41	1683.43
917.58	1636.33
917.75	1662.95
917.92	1505.26
918.09	1550.31
918.26	1626.09
918.42	1613.80
918.59	1644.52
918.76	1593.32
918.93	1601.51
919.10	1638.38
919.27	1640.42
919.44	1691.62
919.60	1624.04
919.77	1589.22
919.94	1648.61
920.11	1591.27
920.28	1695.72
920.45	1544.17
920.61	1533.93
920.78	1617.90
920.95	1728.49
921.12	1679.33
921.29	1650.66
921.46	1572.84
921.62	1550.31
921.79	1683.43
921.96	1583.08
922.13	1675.24
922.30	1638.38
922.47	1621.99
922.63	1644.52
922.80	1617.90
922.97	1556.46
923.14	1525.74
923.31	1626.09
923.47	1624.04
923.64	1771.49
923.81	1654.76
923.98	1683.43
924.15	1662.95
924.32	1673.19
924.48	1650.66
924.65	1658.85
924.82	1542.12
924.99	1583.08
925.15	1556.46
925.32	1728.49
925.49	1646.57
925.66	1607.66
925.83	1550.31
925.99	1605.61
926.16	1701.86
926.33	1648.61
926.50	1501.16
926.67	1685.48
926.83	1593.32
927.00	1671.14
927.17	1691.62
927.34	1544.17
927.50	1677.29
927.67	1783.78
927.84	1626.09
928.01	1605.61
928.17	1656.81
928.34	1634.28
928.51	1535.98
928.68	1656.81
928.84	1652.71
929.01	1566.70
929.18	1611.75
929.35	1578.98
929.51	1621.99
929.68	1658.85
929.85	1636.33
930.02	1599.46
930.18	1638.38
930.35	1699.81
930.52	1667.05
930.69	1708.01
930.85	1771.49
931.02	1650.66
931.19	1609.70
931.36	1646.57
931.52	1658.85
931.69	1677.29
931.86	1640.42
932.02	1662.95
932.19	1615.85
932.36	1712.10
932.53	1671.14
932.69	1566.70
932.86	1789.92
933.03	1591.27
933.19	1576.94
933.36	1593.32
933.53	1742.82
933.70	1703.91
933.86	1685.48
934.03	1679.33
934.20	1669.09
934.36	1767.40
934.53	1574.89
934.70	1601.51
934.86	1652.71
935.03	1564.65
935.20	1609.70
935.36	1613.80
935.53	1593.32
935.70	1642.47
935.86	1581.03
936.03	1589.22
936.20	1519.59
936.36	1583.08
936.53	1550.31
936.70	1634.28
936.86	1761.25
937.03	1658.85
937.20	1560.55
937.36	1832.93
937.53	1542.12
937.70	1552.36
937.86	1535.98
938.03	1636.33
938.20	1687.53
938.36	1624.04
938.53	1636.33
938.70	1638.38
938.86	1621.99
939.03	1689.57
939.20	1611.75
939.36	1658.85
939.53	1665.00
939.70	1839.08
939.86	1654.76
940.03	1677.29
940.19	1591.27
940.36	1650.66
940.53	1679.33
940.69	1695.72
940.86	1667.05
941.03	1621.99
941.19	1587.18
941.36	1685.48
941.52	1613.80
941.69	1662.95
941.86	1548.26
942.02	1607.66
942.19	1677.29
942.35	1613.80
942.52	1630.18
942.69	1624.04
942.85	1624.04
943.02	1601.51
943.18	1656.81
943.35	1642.47
943.52	1587.18
943.68	1546.22
943.85	1734.63
944.01	1581.03
944.18	1632.23
944.35	1658.85
944.51	1636.33
944.68	1558.50
944.84	1624.04
945.01	1654.76
945.17	1660.90
945.34	1685.48
945.51	1697.77
945.67	1626.09
945.84	1712.10
946.00	1562.60
946.17	1636.33
946.33	1546.22
946.50	1744.87
946.67	1640.42
946.83	1624.04
947.00	1662.95
947.16	1671.14
947.33	1578.98
947.49	1628.14
947.66	1535.98
947.82	1740.77
947.99	1533.93
948.16	1691.62
948.32	1581.03
948.49	1636.33
948.65	1679.33
948.82	1724.39
948.98	1650.66
949.15	1513.45
949.31	1646.57
949.48	1556.46
949.64	1599.46
949.81	1630.18
949.97	1613.80
950.14	1703.91
950.30	1535.98
950.47	1671.14
950.63	1632.23
950.80	1693.67
950.96	1611.75
951.13	1613.80
951.30	1667.05
951.46	1613.80
951.63	1636.33
951.79	1599.46
951.96	1648.61
952.12	1648.61
952.29	1632.23
952.45	1578.98
952.62	1576.94
952.78	1630.18
952.94	1646.57
953.11	1609.70
953.27	1572.84
953.44	1763.30
953.60	1615.85
953.77	1703.91
953.93	1632.23
954.10	1583.08
954.26	1630.18
954.43	1585.13
954.59	1697.77
954.76	1742.82
954.92	1681.38
955.09	1734.63
955.25	1533.93
955.42	1542.12
955.58	1783.78
955.75	1667.05
955.91	1611.75
956.07	1562.60
956.24	1615.85
956.40	1685.48
956.57	1697.77
956.73	1544.17
956.90	1642.47
957.06	1572.84
957.23	1589.22
957.39	1607.66
957.56	1621.99
957.72	1550.31
957.88	1587.18
958.05	1710.05
958.21	1572.84
958.38	1626.09
958.54	1656.81
958.71	1650.66
958.87	1566.70
959.03	1624.04
959.20	1658.85
959.36	1603.56
959.53	1581.03
959.69	1585.13
959.85	1683.43
960.02	1556.46
960.18	1601.51
960.35	1630.18
960.51	1724.39
960.68	1632.23
960.84	1695.72
961.00	1562.60
961.17	1566.70
961.33	1626.09
961.50	1570.79
961.66	1665.00
961.82	1568.74
961.99	1646.57
962.15	1644.52
962.31	1560.55
962.48	1619.94
962.64	1654.76
962.81	1601.51
962.97	1632.23
963.13	1685.48
963.30	1585.13
963.46	1572.84
963.62	1624.04
963.79	1593.32
963.95	1572.84
964.12	1581.03
964.28	1673.19
964.44	1654.76
964.61	1681.38
964.77	1703.91
964.93	1773.54
965.10	1607.66
965.26	1542.12
965.42	1615.85
965.59	1531.88
965.75	1597.42
965.92	1724.39
966.08	1730.53
966.24	1621.99
966.41	1476.59
966.57	1593.32
966.73	1642.47
966.90	1689.57
967.06	1624.04
967.22	1509.35
967.39	1587.18
967.55	1652.71
967.71	1677.29
967.88	1650.66
968.04	1609.70
968.20	1558.50
968.37	1656.81
968.53	1640.42
968.69	1720.29
968.85	1724.39
969.02	1578.98
969.18	1736.68
969.34	1654.76
969.51	1601.51
969.67	1652.71
969.83	1587.18
970.00	1722.34
970.16	1638.38
970.32	1648.61
970.48	1722.34
970.65	1581.03
970.81	1607.66
970.97	1671.14
971.14	1558.50
971.30	1730.53
971.46	1607.66
971.63	1591.27
971.79	1638.38
971.95	1654.76
972.11	1605.61
972.28	1601.51
972.44	1599.46
972.60	1603.56
972.76	1662.95
972.93	1642.47
973.09	1683.43
973.25	1658.85
973.42	1507.30
973.58	1650.66
973.74	1751.01
973.90	1646.57
974.07	1587.18
974.23	1662.95
974.39	1630.18
974.55	1607.66
974.72	1650.66
974.88	1521.64
975.04	1628.14
975.20	1630.18
975.37	1656.81
975.53	1566.70
975.69	1662.95
975.85	1548.26
976.01	1599.46
976.18	1583.08
976.34	1595.37
976.50	1660.90
976.66	1667.05
976.83	1673.19
976.99	1558.50
977.15	1665.00
977.31	1527.78
977.47	1683.43
977.64	1574.89
977.80	1589.22
977.96	1667.05
978.12	1632.23
978.29	1503.21
978.45	1521.64
978.61	1630.18
978.77	1656.81
978.93	1587.18
979.10	1646.57
979.26	1699.81
979.42	1599.46
979.58	1556.46
979.74	1607.66
979.91	1669.09
980.07	1642.47
980.23	1624.04
980.39	1611.75
980.55	1626.09
980.71	1609.70
980.88	1566.70
981.04	1675.24
981.20	1578.98
981.36	1654.76
981.52	1601.51
981.68	1550.31
981.85	1691.62
982.01	1634.28
982.17	1550.31
982.33	1619.94
982.49	1724.39
982.65	1587.18
982.82	1560.55
982.98	1681.38
983.14	1509.35
983.30	1689.57
983.46	1683.43
983.62	1617.90
983.79	1595.37
983.95	1581.03
984.11	1564.65
984.27	1568.74
984.43	1658.85
984.59	1587.18
984.75	1656.81
984.91	1632.23
985.08	1589.22
985.24	1585.13
985.40	1535.98
985.56	1671.14
985.72	1687.53
985.88	1638.38
986.04	1558.50
986.20	1505.26
986.37	1605.61
986.53	1632.23
986.69	1687.53
986.85	1546.22
987.01	1601.51
987.17	1630.18
987.33	1515.50
987.49	1624.04
987.65	1615.85
987.82	1646.57
987.98	1519.59
988.14	1607.66
988.30	1656.81
988.46	1626.09
988.62	1644.52
988.78	1597.42
988.94	1632.23
989.10	1634.28
989.26	1583.08
989.42	1615.85
989.59	1589.22
989.75	1638.38
989.91	1658.85
990.07	1560.55
990.23	1566.70
990.39	1695.72
990.55	1730.53
990.71	1619.94
990.87	1587.18
991.03	1562.60
991.19	1585.13
991.35	1605.61
991.51	1652.71
991.67	1683.43
991.83	1591.27
992.00	1660.90
992.16	1658.85
992.32	1667.05
992.48	1693.67
992.64	1474.54
992.80	1691.62
992.96	1642.47
993.12	1568.74
993.28	1642.47
993.44	1624.04
993.60	1677.29
993.76	1644.52
993.92	1607.66
994.08	1650.66
994.24	1695.72
994.40	1576.94
994.56	1687.53
994.72	1611.75
994.88	1617.90
995.04	1675.24
995.20	1609.70
995.36	1552.36
995.52	1660.90
995.68	1675.24
995.84	1572.84
996.00	1683.43
996.16	1556.46
996.32	1650.66
996.48	1593.32
996.64	1630.18
996.80	1601.51
996.96	1613.80
997.12	1636.33
997.28	1634.28
997.44	1517.54
997.60	1642.47
997.76	1607.66
997.92	1613.80
998.08	1552.36
998.24	1538.02
998.40	1650.66
998.56	1624.04
998.72	1556.46
998.88	1648.61
999.04	1572.84
999.20	1675.24
999.36	1581.03
999.52	1744.87
999.68	1597.42
999.84	1644.52
1000.00	1621.99
1000.16	1673.19
1000.32	1611.75
1000.48	1728.49
1000.64	1542.12
1000.80	1597.42
1000.95	1550.31
1001.11	1646.57
1001.27	1595.37
1001.43	1611.75
1001.59	1554.41
1001.75	1527.78
1001.91	1591.27
1002.07	1630.18
1002.23	1533.93
1002.39	1593.32
1002.55	1658.85
1002.71	1566.70
1002.87	1599.46
1003.03	1562.60
1003.19	1589.22
1003.34	1744.87
1003.50	1587.18
1003.66	1677.29
1003.82	1689.57
1003.98	1650.66
1004.14	1626.09
1004.30	1603.56
1004.46	1562.60
1004.62	1609.70
1004.78	1578.98
1004.94	1626.09
1005.09	1654.76
1005.25	1630.18
1005.41	1546.22
1005.57	1671.14
1005.73	1646.57
1005.89	1644.52
1006.05	1636.33
1006.21	1632.23
1006.37	1546.22
1006.52	1585.13
1006.68	1531.88
1006.84	1732.58
1007.00	1601.51
1007.16	1609.70
1007.32	1566.70
1007.48	1591.27
1007.64	1601.51
1007.79	1634.28
1007.95	1527.78
1008.11	1691.62
1008.27	1617.90
1008.43	1634.28
1008.59	1624.04
1008.75	1652.71
1008.91	1615.85
1009.06	1593.32
1009.22	1628.14
1009.38	1624.04
1009.54	1644.52
1009.70	1648.61
1009.86	1617.90
1010.01	1697.77
1010.17	1621.99
1010.33	1677.29
1010.49	1630.18
1010.65	1693.67
1010.81	1566.70
1010.96	1621.99
1011.12	1607.66
1011.28	1558.50
1011.44	1712.10
1011.60	1648.61
1011.76	1607.66
1011.91	1665.00
1012.07	1531.88
1012.23	1572.84
1012.39	1550.31
1012.55	1654.76
1012.71	1564.65
1012.86	1562.60
1013.02	1636.33
1013.18	1599.46
1013.34	1650.66
1013.50	1644.52
1013.65	1615.85
1013.81	1535.98
1013.97	1589.22
1014.13	1665.00
1014.29	1574.89
1014.44	1703.91
1014.60	1533.93
1014.76	1572.84
1014.92	1626.09
1015.07	1632.23
1015.23	1650.66
1015.39	1601.51
1015.55	1490.92
1015.71	1667.05
1015.86	1636.33
1016.02	1535.98
1016.18	1521.64
1016.34	1570.79
1016.49	1574.89
1016.65	1665.00
1016.81	1574.89
1016.97	1642.47
1017.12	1572.84
1017.28	1538.02
1017.44	1599.46
1017.60	1617.90
1017.75	1523.69
1017.91	1587.18
1018.07	1624.04
1018.23	1599.46
1018.38	1568.74
1018.54	1609.70
1018.70	1523.69
1018.86	1591.27
1019.01	1630.18
1019.17	1621.99
1019.33	1679.33
1019.49	1601.51
1019.64	1656.81
1019.80	1550.31
1019.96	1662.95
1020.12	1667.05
1020.27	1591.27
1020.43	1658.85
1020.59	1667.05
1020.74	1636.33
1020.90	1636.33
1021.06	1525.74
1021.22	1621.99
1021.37	1617.90
1021.53	1605.61
1021.69	1640.42
1021.84	1572.84
1022.00	1617.90
1022.16	1599.46
1022.31	1542.12
1022.47	1624.04
1022.63	1642.47
1022.79	1519.59
1022.94	1607.66
1023.10	1648.61
1023.26	1650.66
1023.41	1585.13
1023.57	1572.84
1023.73	1671.14
1023.88	1654.76
1024.04	1595.37
1024.20	1576.94
1024.35	1673.19
1024.51	1624.04
1024.67	1585.13
1024.82	1640.42
1024.98	1562.60
1025.14	1638.38
1025.29	1570.79
1025.45	1638.38
1025.61	1556.46
1025.76	1581.03
1025.92	1636.33
1026.08	1632.23
1026.23	1681.38
1026.39	1669.09
1026.55	1652.71
1026.70	1593.32
1026.86	1613.80
1027.02	1650.66
1027.17	1658.85
1027.33	1640.42
1027.48	1638.38
1027.64	1587.18
1027.80	1613.80
1027.95	1630.18
1028.11	1466.35
1028.27	1699.81
1028.42	1640.42
1028.58	1613.80
1028.73	1665.00
1028.89	1503.21
1029.05	1699.81
1029.20	1597.42
>>>>>End Processed Spectral Data<<<<<
