SpectraSuite Data File
++++++++++++++++++++++++++++++++++++
Date: Fri Jun 02 14:49:23 CEST 2017
User: INFO_000
Dark Spectrum Present: No
Reference Spectrum Present: No
Number of Sampled Component Spectra: 1
Spectrometers: USB4H00879
Integration Time (usec): 80000 (USB4H00879)
Spectra Averaged: 1 (USB4H00879)
Boxcar Smoothing: 0 (USB4H00879)
Correct for Electrical Dark: No (USB4H00879)
Strobe/Lamp Enabled: No (USB4H00879)
Correct for Detector Non-linearity: No (USB4H00879)
Correct for Stray Light: No (USB4H00879)
Number of Pixels in Processed Spectrum: 3648
>>>>>Begin Processed Spectral Data<<<<<
345.13	1259.50
345.34	1259.50
345.56	1259.50
345.78	1302.51
345.99	1325.04
346.21	1693.67
346.42	1697.77
346.64	1665.00
346.86	1812.45
347.07	1724.39
347.29	1761.25
347.50	1581.03
347.72	1742.82
347.94	1787.88
348.15	1576.94
348.37	1599.46
348.59	1740.77
348.80	1679.33
349.02	1705.96
349.23	1759.21
349.45	1705.96
349.67	1746.92
349.88	1679.33
350.10	1875.94
350.31	1738.73
350.53	1685.48
350.75	1808.36
350.96	1646.57
351.18	1714.15
351.39	1724.39
351.61	1656.81
351.82	1720.29
352.04	1804.26
352.26	1679.33
352.47	1699.81
352.69	1773.54
352.90	1650.66
353.12	1675.24
353.34	1640.42
353.55	1818.60
353.77	1736.68
353.98	1636.33
354.20	1703.91
354.41	1734.63
354.63	1724.39
354.85	1877.99
355.06	1781.73
355.28	1630.18
355.49	1599.46
355.71	1746.92
355.92	1650.66
356.14	1718.25
356.35	1609.70
356.57	1716.20
356.79	1773.54
357.00	1687.53
357.22	1744.87
357.43	1665.00
357.65	1802.21
357.86	1755.11
358.08	1767.40
358.29	1693.67
358.51	1765.35
358.72	1781.73
358.94	1665.00
359.16	1695.72
359.37	1636.33
359.59	1734.63
359.80	1773.54
360.02	1660.90
360.23	1777.64
360.45	1824.74
360.66	1712.10
360.88	1673.19
361.09	1697.77
361.31	1759.21
361.52	1689.57
361.74	1759.21
361.95	1806.31
362.17	1683.43
362.38	1812.45
362.60	1828.84
362.81	1697.77
363.03	1697.77
363.24	1705.96
363.46	1724.39
363.67	1646.57
363.89	1742.82
364.10	1691.62
364.32	1708.01
364.53	1843.17
364.75	1617.90
364.96	1740.77
365.18	1746.92
365.39	1718.25
365.61	1683.43
365.82	1761.25
366.04	1619.94
366.25	1724.39
366.47	1667.05
366.68	1675.24
366.90	1652.71
367.11	1834.98
367.33	1714.15
367.54	1699.81
367.76	1677.29
367.97	1748.97
368.19	1722.34
368.40	1703.91
368.62	1626.09
368.83	1615.85
369.05	1740.77
369.26	1734.63
369.48	1689.57
369.69	1587.18
369.91	1742.82
370.12	1632.23
370.33	1724.39
370.55	1638.38
370.76	1646.57
370.98	1775.59
371.19	1763.30
371.41	1691.62
371.62	1669.09
371.84	1656.81
372.05	1773.54
372.27	1689.57
372.48	1730.53
372.69	1677.29
372.91	1724.39
373.12	1748.97
373.34	1726.44
373.55	1716.20
373.77	1679.33
373.98	1703.91
374.20	1789.92
374.41	1728.49
374.62	1695.72
374.84	1753.06
375.05	1773.54
375.27	1701.86
375.48	1755.11
375.70	1710.05
375.91	1791.97
376.12	1820.64
376.34	1667.05
376.55	1716.20
376.77	1703.91
376.98	1591.27
377.19	1662.95
377.41	1679.33
377.62	1746.92
377.84	1761.25
378.05	1753.06
378.27	1693.67
378.48	1804.26
378.69	1804.26
378.91	1751.01
379.12	1757.16
379.34	1732.58
379.55	1740.77
379.76	1728.49
379.98	1705.96
380.19	1746.92
380.41	1656.81
380.62	1773.54
380.83	1650.66
381.05	1685.48
381.26	1865.70
381.47	1689.57
381.69	1775.59
381.90	1818.60
382.12	1695.72
382.33	1667.05
382.54	1740.77
382.76	1732.58
382.97	1650.66
383.19	1710.05
383.40	1742.82
383.61	1619.94
383.83	1617.90
384.04	1634.28
384.25	1710.05
384.47	1724.39
384.68	1712.10
384.89	1597.42
385.11	1613.80
385.32	1646.57
385.54	1652.71
385.75	1712.10
385.96	1695.72
386.18	1675.24
386.39	1775.59
386.60	1607.66
386.82	1753.06
387.03	1617.90
387.24	1804.26
387.46	1693.67
387.67	1708.01
387.88	1691.62
388.10	1658.85
388.31	1789.92
388.52	1703.91
388.74	1699.81
388.95	1710.05
389.16	1771.49
389.38	1699.81
389.59	1728.49
389.80	1800.16
390.02	1730.53
390.23	1755.11
390.44	1681.38
390.66	1724.39
390.87	1671.14
391.08	1783.78
391.30	1773.54
391.51	1724.39
391.72	1767.40
391.94	1703.91
392.15	1628.14
392.36	1603.56
392.58	1675.24
392.79	1714.15
393.00	1732.58
393.22	1791.97
393.43	1796.07
393.64	1826.79
393.85	1834.98
394.07	1644.52
394.28	1773.54
394.49	1738.73
394.71	1779.68
394.92	1767.40
395.13	1638.38
395.35	1662.95
395.56	1654.76
395.77	1708.01
395.98	1705.96
396.20	1726.44
396.41	1804.26
396.62	1660.90
396.84	1648.61
397.05	1652.71
397.26	1685.48
397.47	1783.78
397.69	1728.49
397.90	1890.28
398.11	1804.26
398.32	1728.49
398.54	1701.86
398.75	1634.28
398.96	1681.38
399.18	1839.08
399.39	1712.10
399.60	1744.87
399.81	1613.80
400.03	1632.23
400.24	1910.75
400.45	1748.97
400.66	1679.33
400.88	1675.24
401.09	1937.38
401.30	1675.24
401.51	1775.59
401.73	1720.29
401.94	1794.02
402.15	1621.99
402.36	1761.25
402.58	1748.97
402.79	1785.83
403.00	1681.38
403.21	1794.02
403.43	1746.92
403.64	1789.92
403.85	1734.63
404.06	1753.06
404.27	1644.52
404.49	1718.25
404.70	1669.09
404.91	1732.58
405.12	1720.29
405.34	1718.25
405.55	1777.64
405.76	1681.38
405.97	1617.90
406.19	1787.88
406.40	1628.14
406.61	1728.49
406.82	1619.94
407.03	1734.63
407.25	1642.47
407.46	1808.36
407.67	1763.30
407.88	1779.68
408.09	1732.58
408.31	1699.81
408.52	1732.58
408.73	1660.90
408.94	1642.47
409.15	1773.54
409.37	1826.79
409.58	1791.97
409.79	1740.77
410.00	1814.50
410.21	1640.42
410.43	1732.58
410.64	1667.05
410.85	1734.63
411.06	1693.67
411.27	1718.25
411.48	1802.21
411.70	1703.91
411.91	1665.00
412.12	1689.57
412.33	1787.88
412.54	1708.01
412.76	1773.54
412.97	1718.25
413.18	1667.05
413.39	1662.95
413.60	1730.53
413.81	1720.29
414.03	1687.53
414.24	1615.85
414.45	1820.64
414.66	1617.90
414.87	1761.25
415.08	1667.05
415.30	1714.15
415.51	1697.77
415.72	1621.99
415.93	1705.96
416.14	1732.58
416.35	1740.77
416.56	1740.77
416.78	1744.87
416.99	1683.43
417.20	1738.73
417.41	1751.01
417.62	1683.43
417.83	1748.97
418.04	1730.53
418.26	1771.49
418.47	1667.05
418.68	1765.35
418.89	1791.97
419.10	1855.46
419.31	1812.45
419.52	1759.21
419.73	1708.01
419.95	1691.62
420.16	1685.48
420.37	1681.38
420.58	1787.88
420.79	1708.01
421.00	1667.05
421.21	1708.01
421.42	1691.62
421.63	1693.67
421.85	1728.49
422.06	1705.96
422.27	1742.82
422.48	1755.11
422.69	1722.34
422.90	1613.80
423.11	1683.43
423.32	1794.02
423.53	1712.10
423.75	1759.21
423.96	1730.53
424.17	1646.57
424.38	1855.46
424.59	1734.63
424.80	1705.96
425.01	1687.53
425.22	1599.46
425.43	1712.10
425.64	1732.58
425.85	1757.16
426.06	1757.16
426.28	1689.57
426.49	1593.32
426.70	1607.66
426.91	1687.53
427.12	1761.25
427.33	1703.91
427.54	1630.18
427.75	1705.96
427.96	1736.68
428.17	1765.35
428.38	1708.01
428.59	1785.83
428.80	1665.00
429.01	1665.00
429.23	1654.76
429.44	1654.76
429.65	1716.20
429.86	1665.00
430.07	1679.33
430.28	1636.33
430.49	1708.01
430.70	1798.12
430.91	1785.83
431.12	1585.13
431.33	1716.20
431.54	1804.26
431.75	1626.09
431.96	1679.33
432.17	1785.83
432.38	1748.97
432.59	1695.72
432.80	1824.74
433.01	1699.81
433.22	1703.91
433.43	1675.24
433.64	1748.97
433.85	1740.77
434.06	1662.95
434.27	1621.99
434.49	1734.63
434.70	1777.64
434.91	1732.58
435.12	1658.85
435.33	1744.87
435.54	1689.57
435.75	1665.00
435.96	1617.90
436.17	1675.24
436.38	1712.10
436.59	1710.05
436.80	1611.75
437.01	1705.96
437.22	1736.68
437.43	1681.38
437.64	1681.38
437.85	1712.10
438.06	1767.40
438.27	1722.34
438.48	1665.00
438.69	1705.96
438.90	1716.20
439.11	1642.47
439.32	1779.68
439.53	1574.89
439.74	1632.23
439.95	1716.20
440.16	1660.90
440.37	1691.62
440.57	1720.29
440.78	1798.12
440.99	1683.43
441.20	1728.49
441.41	1583.08
441.62	1681.38
441.83	1658.85
442.04	1642.47
442.25	1716.20
442.46	1691.62
442.67	1593.32
442.88	1761.25
443.09	1648.61
443.30	1607.66
443.51	1675.24
443.72	1732.58
443.93	1599.46
444.14	1740.77
444.35	1644.52
444.56	1689.57
444.77	1634.28
444.98	1744.87
445.19	1642.47
445.40	1697.77
445.61	1648.61
445.81	1626.09
446.02	1783.78
446.23	1699.81
446.44	1619.94
446.65	1699.81
446.86	1732.58
447.07	1796.07
447.28	1740.77
447.49	1689.57
447.70	1634.28
447.91	1753.06
448.12	1724.39
448.33	1712.10
448.54	1730.53
448.74	1658.85
448.95	1722.34
449.16	1699.81
449.37	1757.16
449.58	1679.33
449.79	1705.96
450.00	1685.48
450.21	1687.53
450.42	1697.77
450.63	1626.09
450.84	1609.70
451.05	1761.25
451.25	1660.90
451.46	1683.43
451.67	1806.31
451.88	1691.62
452.09	1703.91
452.30	1689.57
452.51	1660.90
452.72	1734.63
452.93	1794.02
453.13	1689.57
453.34	1730.53
453.55	1701.86
453.76	1755.11
453.97	1679.33
454.18	1560.55
454.39	1740.77
454.60	1712.10
454.81	1683.43
455.01	1669.09
455.22	1599.46
455.43	1650.66
455.64	1710.05
455.85	1818.60
456.06	1753.06
456.27	1755.11
456.48	1744.87
456.68	1634.28
456.89	1779.68
457.10	1705.96
457.31	1701.86
457.52	1714.15
457.73	1593.32
457.94	1693.67
458.14	1570.79
458.35	1689.57
458.56	1728.49
458.77	1656.81
458.98	1681.38
459.19	1671.14
459.39	1742.82
459.60	1619.94
459.81	1656.81
460.02	1624.04
460.23	1718.25
460.44	1673.19
460.65	1693.67
460.85	1609.70
461.06	1644.52
461.27	1701.86
461.48	1654.76
461.69	1703.91
461.89	1572.84
462.10	1675.24
462.31	1603.56
462.52	1581.03
462.73	1585.13
462.94	1691.62
463.14	1705.96
463.35	1667.05
463.56	1791.97
463.77	1773.54
463.98	1626.09
464.18	1693.67
464.39	1697.77
464.60	1736.68
464.81	1570.79
465.02	1675.24
465.23	1701.86
465.43	1689.57
465.64	1644.52
465.85	1619.94
466.06	1744.87
466.27	1751.01
466.47	1665.00
466.68	1748.97
466.89	1695.72
467.10	1593.32
467.30	1638.38
467.51	1746.92
467.72	1816.55
467.93	1652.71
468.14	1695.72
468.34	1716.20
468.55	1716.20
468.76	1818.60
468.97	1693.67
469.17	1853.41
469.38	1834.98
469.59	1730.53
469.80	1724.39
470.01	1691.62
470.21	1658.85
470.42	1689.57
470.63	1748.97
470.84	1791.97
471.04	1691.62
471.25	1834.98
471.46	1697.77
471.67	1777.64
471.87	1697.77
472.08	1738.73
472.29	1654.76
472.50	1828.84
472.70	1597.42
472.91	1662.95
473.12	1607.66
473.33	1687.53
473.53	1734.63
473.74	1650.66
473.95	1660.90
474.16	1583.08
474.36	1658.85
474.57	1724.39
474.78	1644.52
474.99	1738.73
475.19	1705.96
475.40	1681.38
475.61	1710.05
475.81	1748.97
476.02	1675.24
476.23	1681.38
476.44	1656.81
476.64	1652.71
476.85	1685.48
477.06	1679.33
477.27	1613.80
477.47	1724.39
477.68	1722.34
477.89	1722.34
478.09	1679.33
478.30	1619.94
478.51	1681.38
478.71	1646.57
478.92	1728.49
479.13	1679.33
479.34	1576.94
479.54	1748.97
479.75	1765.35
479.96	1599.46
480.16	1669.09
480.37	1738.73
480.58	1613.80
480.78	1787.88
480.99	1638.38
481.20	1671.14
481.41	1726.44
481.61	1736.68
481.82	1888.23
482.03	1646.57
482.23	1714.15
482.44	1763.30
482.65	1880.04
482.85	1714.15
483.06	1714.15
483.27	1613.80
483.47	1720.29
483.68	1677.29
483.89	1607.66
484.09	1826.79
484.30	1705.96
484.51	1798.12
484.71	1581.03
484.92	1654.76
485.13	1665.00
485.33	1722.34
485.54	1630.18
485.75	1759.21
485.95	1798.12
486.16	1662.95
486.37	1679.33
486.57	1705.96
486.78	1701.86
486.98	1769.44
487.19	1746.92
487.40	1732.58
487.60	1667.05
487.81	1708.01
488.02	1611.75
488.22	1648.61
488.43	1779.68
488.64	1701.86
488.84	1714.15
489.05	1662.95
489.25	1716.20
489.46	1701.86
489.67	1683.43
489.87	1775.59
490.08	1751.01
490.29	1611.75
490.49	1843.17
490.70	1695.72
490.90	1646.57
491.11	1673.19
491.32	1671.14
491.52	1665.00
491.73	1742.82
491.94	1712.10
492.14	1685.48
492.35	1687.53
492.55	1724.39
492.76	1642.47
492.97	1644.52
493.17	1699.81
493.38	1789.92
493.58	1830.88
493.79	1648.61
494.00	1665.00
494.20	1621.99
494.41	1798.12
494.61	1740.77
494.82	1669.09
495.02	1621.99
495.23	1769.44
495.44	1757.16
495.64	1658.85
495.85	1626.09
496.05	1791.97
496.26	1722.34
496.47	1660.90
496.67	1722.34
496.88	1812.45
497.08	1650.66
497.29	1660.90
497.49	1740.77
497.70	1669.09
497.91	1699.81
498.11	1830.88
498.32	1771.49
498.52	1736.68
498.73	1679.33
498.93	1744.87
499.14	1791.97
499.34	1802.21
499.55	1834.98
499.76	1595.37
499.96	1781.73
500.17	1705.96
500.37	1675.24
500.58	1695.72
500.78	1689.57
500.99	1632.23
501.19	1681.38
501.40	1800.16
501.60	1652.71
501.81	1615.85
502.02	1679.33
502.22	1705.96
502.43	1732.58
502.63	1843.17
502.84	1763.30
503.04	1722.34
503.25	1714.15
503.45	1746.92
503.66	1699.81
503.86	1746.92
504.07	1730.53
504.27	1603.56
504.48	1617.90
504.68	1630.18
504.89	1767.40
505.09	1591.27
505.30	1701.86
505.50	1830.88
505.71	1624.04
505.91	1820.64
506.12	1746.92
506.32	1714.15
506.53	1673.19
506.73	1683.43
506.94	1693.67
507.14	1632.23
507.35	1861.60
507.55	1665.00
507.76	1638.38
507.96	1630.18
508.17	1736.68
508.37	1642.47
508.58	1736.68
508.78	1763.30
508.99	1777.64
509.19	1746.92
509.40	1740.77
509.60	1779.68
509.81	1701.86
510.01	1755.11
510.22	1705.96
510.42	1757.16
510.63	1826.79
510.83	1660.90
511.04	1685.48
511.24	1771.49
511.44	1748.97
511.65	1638.38
511.85	1703.91
512.06	1697.77
512.26	1667.05
512.47	1843.17
512.67	1593.32
512.88	1775.59
513.08	1591.27
513.29	1748.97
513.49	1578.98
513.69	1669.09
513.90	1701.86
514.10	1773.54
514.31	1785.83
514.51	1734.63
514.72	1662.95
514.92	1748.97
515.13	1601.51
515.33	1675.24
515.53	1607.66
515.74	1746.92
515.94	1689.57
516.15	1759.21
516.35	1646.57
516.56	1640.42
516.76	1617.90
516.96	1714.15
517.17	1734.63
517.37	1687.53
517.58	1634.28
517.78	1662.95
517.99	1738.73
518.19	1785.83
518.39	1722.34
518.60	1810.40
518.80	1683.43
519.01	1787.88
519.21	1667.05
519.41	1714.15
519.62	1640.42
519.82	1730.53
520.03	1771.49
520.23	1691.62
520.43	1595.37
520.64	1730.53
520.84	1789.92
521.05	1642.47
521.25	1734.63
521.45	1630.18
521.66	1726.44
521.86	1677.29
522.07	1736.68
522.27	1665.00
522.47	1679.33
522.68	1652.71
522.88	1703.91
523.08	1826.79
523.29	1679.33
523.49	1615.85
523.70	1654.76
523.90	1691.62
524.10	1669.09
524.31	1654.76
524.51	1630.18
524.71	1765.35
524.92	1712.10
525.12	1638.38
525.33	1714.15
525.53	1714.15
525.73	1763.30
525.94	1640.42
526.14	1626.09
526.34	1636.33
526.55	1757.16
526.75	1781.73
526.95	1728.49
527.16	1701.86
527.36	1712.10
527.56	1687.53
527.77	1634.28
527.97	1755.11
528.17	1748.97
528.38	1716.20
528.58	1724.39
528.78	1646.57
528.99	1667.05
529.19	1697.77
529.39	1638.38
529.60	1634.28
529.80	1685.48
530.00	1683.43
530.21	1689.57
530.41	1691.62
530.61	1728.49
530.82	1671.14
531.02	1617.90
531.22	1748.97
531.43	1757.16
531.63	1697.77
531.83	1781.73
532.04	1783.78
532.24	1697.77
532.44	1705.96
532.64	1814.50
532.85	1601.51
533.05	1677.29
533.25	1634.28
533.46	1656.81
533.66	1744.87
533.86	1644.52
534.07	1730.53
534.27	1691.62
534.47	1757.16
534.67	1703.91
534.88	1662.95
535.08	1714.15
535.28	1695.72
535.49	1636.33
535.69	1755.11
535.89	1683.43
536.09	1796.07
536.30	1742.82
536.50	1753.06
536.70	1697.77
536.91	1710.05
537.11	1761.25
537.31	1746.92
537.51	1697.77
537.72	1699.81
537.92	1675.24
538.12	1695.72
538.32	1791.97
538.53	1765.35
538.73	1609.70
538.93	1761.25
539.13	1755.11
539.34	1724.39
539.54	1587.18
539.74	1730.53
539.94	1613.80
540.15	1837.03
540.35	1699.81
540.55	1685.48
540.75	1662.95
540.96	1673.19
541.16	1662.95
541.36	1695.72
541.56	1734.63
541.77	1748.97
541.97	1789.92
542.17	1624.04
542.37	1710.05
542.58	1763.30
542.78	1697.77
542.98	1712.10
543.18	1806.31
543.38	1757.16
543.59	1716.20
543.79	1644.52
543.99	1708.01
544.19	1646.57
544.40	1761.25
544.60	1697.77
544.80	1697.77
545.00	1601.51
545.20	1761.25
545.41	1654.76
545.61	1611.75
545.81	1669.09
546.01	1644.52
546.21	1609.70
546.42	1695.72
546.62	1796.07
546.82	1667.05
547.02	1648.61
547.22	1601.51
547.43	1773.54
547.63	1767.40
547.83	1662.95
548.03	1724.39
548.23	1820.64
548.44	1675.24
548.64	1697.77
548.84	1660.90
549.04	1673.19
549.24	1861.60
549.45	1943.52
549.65	1581.03
549.85	1675.24
550.05	1691.62
550.25	1597.42
550.45	1798.12
550.66	1724.39
550.86	1681.38
551.06	1714.15
551.26	1632.23
551.46	1681.38
551.66	1730.53
551.87	1656.81
552.07	1746.92
552.27	1724.39
552.47	1746.92
552.67	1673.19
552.87	1744.87
553.07	1681.38
553.28	1730.53
553.48	1712.10
553.68	1628.14
553.88	1724.39
554.08	1714.15
554.28	1628.14
554.48	1691.62
554.69	1783.78
554.89	1720.29
555.09	1636.33
555.29	1642.47
555.49	1710.05
555.69	1669.09
555.89	1650.66
556.10	1734.63
556.30	1699.81
556.50	1697.77
556.70	1734.63
556.90	1738.73
557.10	1730.53
557.30	1730.53
557.50	1548.26
557.70	1644.52
557.91	1681.38
558.11	1710.05
558.31	1773.54
558.51	1761.25
558.71	1740.77
558.91	1699.81
559.11	1683.43
559.31	1654.76
559.51	1667.05
559.72	1720.29
559.92	1658.85
560.12	1615.85
560.32	1822.69
560.52	1710.05
560.72	1636.33
560.92	1755.11
561.12	1665.00
561.32	1636.33
561.52	1710.05
561.72	1826.79
561.93	1699.81
562.13	1665.00
562.33	1650.66
562.53	1716.20
562.73	1683.43
562.93	1650.66
563.13	1728.49
563.33	1814.50
563.53	1773.54
563.73	1740.77
563.93	1730.53
564.13	1857.51
564.33	1671.14
564.53	1669.09
564.74	1697.77
564.94	1621.99
565.14	1765.35
565.34	1785.83
565.54	1712.10
565.74	1656.81
565.94	1697.77
566.14	1724.39
566.34	1699.81
566.54	1701.86
566.74	1689.57
566.94	1740.77
567.14	1787.88
567.34	1695.72
567.54	1691.62
567.74	1714.15
567.94	1687.53
568.14	1660.90
568.34	1810.40
568.54	1671.14
568.74	1759.21
568.94	1847.27
569.14	1869.80
569.34	1658.85
569.54	1583.08
569.75	1662.95
569.95	1804.26
570.15	1757.16
570.35	1708.01
570.55	1646.57
570.75	1708.01
570.95	1595.37
571.15	1708.01
571.35	1660.90
571.55	1687.53
571.75	1695.72
571.95	1652.71
572.15	1617.90
572.35	1665.00
572.55	1705.96
572.75	1634.28
572.95	1613.80
573.15	1662.95
573.35	1781.73
573.55	1716.20
573.75	1740.77
573.95	1859.56
574.15	1693.67
574.35	1712.10
574.55	1665.00
574.75	1642.47
574.95	1667.05
575.15	1671.14
575.34	1691.62
575.54	1675.24
575.74	1742.82
575.94	1705.96
576.14	1660.90
576.34	1759.21
576.54	1730.53
576.74	1789.92
576.94	1548.26
577.14	1722.34
577.34	1806.31
577.54	1607.66
577.74	1587.18
577.94	1667.05
578.14	1652.71
578.34	1744.87
578.54	1578.98
578.74	1712.10
578.94	1640.42
579.14	1716.20
579.34	1662.95
579.54	1708.01
579.74	1642.47
579.94	1621.99
580.13	1720.29
580.33	1642.47
580.53	1673.19
580.73	1708.01
580.93	1728.49
581.13	1593.32
581.33	1699.81
581.53	1712.10
581.73	1748.97
581.93	1613.80
582.13	1703.91
582.33	1693.67
582.53	1671.14
582.73	1761.25
582.92	1640.42
583.12	1724.39
583.32	1734.63
583.52	1697.77
583.72	1804.26
583.92	1769.44
584.12	1722.34
584.32	1701.86
584.52	1562.60
584.72	1716.20
584.92	1732.58
585.11	1695.72
585.31	1796.07
585.51	1716.20
585.71	1722.34
585.91	1804.26
586.11	1650.66
586.31	1748.97
586.51	1646.57
586.71	1683.43
586.91	1691.62
587.10	1748.97
587.30	1748.97
587.50	1724.39
587.70	1667.05
587.90	1685.48
588.10	1675.24
588.30	1785.83
588.50	1716.20
588.69	1708.01
588.89	1740.77
589.09	1740.77
589.29	1662.95
589.49	1650.66
589.69	1654.76
589.89	1658.85
590.08	1644.52
590.28	1619.94
590.48	1716.20
590.68	1695.72
590.88	1675.24
591.08	1716.20
591.28	1689.57
591.47	1794.02
591.67	1597.42
591.87	1691.62
592.07	1777.64
592.27	1658.85
592.47	1638.38
592.67	1755.11
592.86	1585.13
593.06	1769.44
593.26	1798.12
593.46	1769.44
593.66	1544.17
593.86	1814.50
594.05	1746.92
594.25	1769.44
594.45	1673.19
594.65	1837.03
594.85	1730.53
595.05	1679.33
595.24	1656.81
595.44	1613.80
595.64	1685.48
595.84	1748.97
596.04	1597.42
596.23	1728.49
596.43	1773.54
596.63	1724.39
596.83	1699.81
597.03	1847.27
597.22	1650.66
597.42	1767.40
597.62	1767.40
597.82	1779.68
598.02	1740.77
598.21	1621.99
598.41	1654.76
598.61	1716.20
598.81	1654.76
599.01	1732.58
599.20	1765.35
599.40	1642.47
599.60	1671.14
599.80	1708.01
600.00	1812.45
600.19	1748.97
600.39	1658.85
600.59	1765.35
600.79	1751.01
600.98	1648.61
601.18	1730.53
601.38	1699.81
601.58	1683.43
601.78	1832.93
601.97	1861.60
602.17	1693.67
602.37	1703.91
602.57	1757.16
602.76	1679.33
602.96	1669.09
603.16	1611.75
603.36	1765.35
603.55	1742.82
603.75	1675.24
603.95	1730.53
604.15	1697.77
604.34	1734.63
604.54	1658.85
604.74	1771.49
604.94	1748.97
605.13	1634.28
605.33	1683.43
605.53	1736.68
605.73	1769.44
605.92	1697.77
606.12	1695.72
606.32	1761.25
606.52	1705.96
606.71	1736.68
606.91	1726.44
607.11	1656.81
607.30	1740.77
607.50	1746.92
607.70	1804.26
607.90	1722.34
608.09	1578.98
608.29	1781.73
608.49	1697.77
608.68	1611.75
608.88	1679.33
609.08	1683.43
609.28	1732.58
609.47	1687.53
609.67	1755.11
609.87	1775.59
610.06	1705.96
610.26	1683.43
610.46	1777.64
610.66	1595.37
610.85	1613.80
611.05	1802.21
611.25	1708.01
611.44	1611.75
611.64	1765.35
611.84	1677.29
612.03	1642.47
612.23	1720.29
612.43	1714.15
612.62	1687.53
612.82	1748.97
613.02	1677.29
613.21	1687.53
613.41	1828.84
613.61	1703.91
613.80	1648.61
614.00	1701.86
614.20	1687.53
614.39	1732.58
614.59	1669.09
614.79	1611.75
614.98	1734.63
615.18	1722.34
615.38	1744.87
615.57	1681.38
615.77	1810.40
615.97	1646.57
616.16	1632.23
616.36	1773.54
616.56	1748.97
616.75	1683.43
616.95	1685.48
617.15	1796.07
617.34	1722.34
617.54	1765.35
617.74	1787.88
617.93	1808.36
618.13	1626.09
618.32	1699.81
618.52	1685.48
618.72	1665.00
618.91	1753.06
619.11	1896.42
619.31	1732.58
619.50	1669.09
619.70	1632.23
619.90	1732.58
620.09	1724.39
620.29	1697.77
620.48	1822.69
620.68	1773.54
620.88	1718.25
621.07	1798.12
621.27	1665.00
621.46	1705.96
621.66	1712.10
621.86	1626.09
622.05	1652.71
622.25	1751.01
622.44	1761.25
622.64	1683.43
622.84	1699.81
623.03	1615.85
623.23	1671.14
623.42	1742.82
623.62	1667.05
623.82	1806.31
624.01	1765.35
624.21	1642.47
624.40	1843.17
624.60	1626.09
624.80	1746.92
624.99	1687.53
625.19	1720.29
625.38	1732.58
625.58	1710.05
625.77	1695.72
625.97	1779.68
626.17	1689.57
626.36	1656.81
626.56	1744.87
626.75	1587.18
626.95	1785.83
627.14	1689.57
627.34	1673.19
627.54	1697.77
627.73	1810.40
627.93	1738.73
628.12	1783.78
628.32	1728.49
628.51	1603.56
628.71	1726.44
628.90	1746.92
629.10	1683.43
629.30	1675.24
629.49	1779.68
629.69	1636.33
629.88	1665.00
630.08	1824.74
630.27	1849.32
630.47	1773.54
630.66	1591.27
630.86	1714.15
631.05	1638.38
631.25	1722.34
631.44	1796.07
631.64	1603.56
631.84	1642.47
632.03	1718.25
632.23	1681.38
632.42	1736.68
632.62	1705.96
632.81	1726.44
633.01	1699.81
633.20	1845.22
633.40	1820.64
633.59	1652.71
633.79	1710.05
633.98	1765.35
634.18	1734.63
634.37	1791.97
634.57	1673.19
634.76	1636.33
634.96	1794.02
635.15	1834.98
635.35	1765.35
635.54	1722.34
635.74	1593.32
635.93	1636.33
636.13	1724.39
636.32	1794.02
636.52	1734.63
636.71	1609.70
636.91	1718.25
637.10	1730.53
637.30	1642.47
637.49	1701.86
637.69	1732.58
637.88	1718.25
638.08	1630.18
638.27	1701.86
638.46	1777.64
638.66	1656.81
638.85	1728.49
639.05	1673.19
639.24	1796.07
639.44	1757.16
639.63	1665.00
639.83	1804.26
640.02	1662.95
640.22	1714.15
640.41	1695.72
640.61	1740.77
640.80	1783.78
640.99	1662.95
641.19	1775.59
641.38	1755.11
641.58	1720.29
641.77	1624.04
641.97	1619.94
642.16	1675.24
642.36	1679.33
642.55	1703.91
642.74	1744.87
642.94	1654.76
643.13	1650.66
643.33	1757.16
643.52	1755.11
643.72	1710.05
643.91	1638.38
644.10	1796.07
644.30	1634.28
644.49	1722.34
644.69	1705.96
644.88	1742.82
645.08	1789.92
645.27	1722.34
645.46	1679.33
645.66	1720.29
645.85	1716.20
646.05	1640.42
646.24	1581.03
646.43	1724.39
646.63	1740.77
646.82	1703.91
647.02	1755.11
647.21	1822.69
647.40	1603.56
647.60	1636.33
647.79	1714.15
647.99	1630.18
648.18	1667.05
648.37	1710.05
648.57	1773.54
648.76	1675.24
648.96	1634.28
649.15	1689.57
649.34	1873.89
649.54	1693.67
649.73	1671.14
649.92	1640.42
650.12	1751.01
650.31	1687.53
650.51	1953.76
650.70	1689.57
650.89	1658.85
651.09	1708.01
651.28	1708.01
651.47	1660.90
651.67	1687.53
651.86	1724.39
652.06	1697.77
652.25	1716.20
652.44	1642.47
652.64	1722.34
652.83	1693.67
653.02	1732.58
653.22	1769.44
653.41	1703.91
653.60	1673.19
653.80	1658.85
653.99	1708.01
654.18	1669.09
654.38	1650.66
654.57	1714.15
654.76	1599.46
654.96	1667.05
655.15	1572.84
655.34	1650.66
655.54	1613.80
655.73	1751.01
655.92	1708.01
656.12	1738.73
656.31	1794.02
656.50	1767.40
656.70	1671.14
656.89	1736.68
657.08	1617.90
657.28	1705.96
657.47	1677.29
657.66	1624.04
657.86	1665.00
658.05	1728.49
658.24	1712.10
658.43	1724.39
658.63	1638.38
658.82	1734.63
659.01	1785.83
659.21	1755.11
659.40	1671.14
659.59	1687.53
659.79	1650.66
659.98	1865.70
660.17	1730.53
660.36	1708.01
660.56	1779.68
660.75	1730.53
660.94	1742.82
661.14	1671.14
661.33	1697.77
661.52	1681.38
661.71	1712.10
661.91	1722.34
662.10	1738.73
662.29	1568.74
662.49	1685.48
662.68	1665.00
662.87	1665.00
663.06	1834.98
663.26	1607.66
663.45	1877.99
663.64	1652.71
663.83	1791.97
664.03	1726.44
664.22	1724.39
664.41	1716.20
664.60	1802.21
664.80	1662.95
664.99	1710.05
665.18	1722.34
665.37	1691.62
665.57	1798.12
665.76	1724.39
665.95	1705.96
666.14	1695.72
666.34	1648.61
666.53	1751.01
666.72	1583.08
666.91	1738.73
667.11	1712.10
667.30	1898.47
667.49	1638.38
667.68	1843.17
667.87	1783.78
668.07	1755.11
668.26	1630.18
668.45	1646.57
668.64	1634.28
668.84	1769.44
669.03	1691.62
669.22	1804.26
669.41	1681.38
669.60	1599.46
669.80	1791.97
669.99	1662.95
670.18	1658.85
670.37	1847.27
670.57	1716.20
670.76	1789.92
670.95	1767.40
671.14	1714.15
671.33	1662.95
671.53	1712.10
671.72	1859.56
671.91	1771.49
672.10	1673.19
672.29	1646.57
672.48	1615.85
672.68	1667.05
672.87	1636.33
673.06	1740.77
673.25	1712.10
673.44	1691.62
673.64	1570.79
673.83	1738.73
674.02	1607.66
674.21	1714.15
674.40	1732.58
674.59	1658.85
674.79	1687.53
674.98	1730.53
675.17	1734.63
675.36	1585.13
675.55	1712.10
675.74	1634.28
675.94	1785.83
676.13	1830.88
676.32	1675.24
676.51	1687.53
676.70	1605.61
676.89	1703.91
677.08	1740.77
677.28	1787.88
677.47	1705.96
677.66	1693.67
677.85	1611.75
678.04	1724.39
678.23	1718.25
678.42	1658.85
678.62	1671.14
678.81	1669.09
679.00	1705.96
679.19	1775.59
679.38	1732.58
679.57	1568.74
679.76	1652.71
679.96	1671.14
680.15	1753.06
680.34	1681.38
680.53	1781.73
680.72	1832.93
680.91	1693.67
681.10	1771.49
681.29	1751.01
681.48	1751.01
681.68	1734.63
681.87	1779.68
682.06	1730.53
682.25	1818.60
682.44	1624.04
682.63	1771.49
682.82	1570.79
683.01	1781.73
683.20	1695.72
683.39	1818.60
683.59	1646.57
683.78	1642.47
683.97	1736.68
684.16	1521.64
684.35	1626.09
684.54	1804.26
684.73	1695.72
684.92	1583.08
685.11	1787.88
685.30	1726.44
685.49	1701.86
685.69	1783.78
685.88	1683.43
686.07	1552.36
686.26	1687.53
686.45	1691.62
686.64	1783.78
686.83	1669.09
687.02	1748.97
687.21	1718.25
687.40	1665.00
687.59	1753.06
687.78	1679.33
687.97	1820.64
688.16	1738.73
688.35	1679.33
688.54	1763.30
688.74	1585.13
688.93	1748.97
689.12	1679.33
689.31	1820.64
689.50	1804.26
689.69	1685.48
689.88	1683.43
690.07	1703.91
690.26	1634.28
690.45	1570.79
690.64	1636.33
690.83	1697.77
691.02	1699.81
691.21	1654.76
691.40	1683.43
691.59	1697.77
691.78	1730.53
691.97	1742.82
692.16	1753.06
692.35	1728.49
692.54	1794.02
692.73	1667.05
692.92	1699.81
693.11	1650.66
693.30	1714.15
693.49	1601.51
693.68	1775.59
693.87	1712.10
694.06	1634.28
694.25	1632.23
694.44	1712.10
694.63	1634.28
694.82	1634.28
695.01	1675.24
695.20	1675.24
695.39	1677.29
695.58	1767.40
695.77	1648.61
695.96	1681.38
696.15	1642.47
696.34	1667.05
696.53	1736.68
696.72	1656.81
696.91	1673.19
697.10	1703.91
697.29	1675.24
697.48	1884.13
697.67	1755.11
697.86	1656.81
698.05	1675.24
698.24	1734.63
698.43	1671.14
698.62	1716.20
698.81	1732.58
699.00	1730.53
699.19	1789.92
699.38	1671.14
699.57	1638.38
699.76	1689.57
699.95	1669.09
700.14	1642.47
700.32	1751.01
700.51	1652.71
700.70	1669.09
700.89	1767.40
701.08	1753.06
701.27	1624.04
701.46	1804.26
701.65	1652.71
701.84	1718.25
702.03	1642.47
702.22	1671.14
702.41	1746.92
702.60	1777.64
702.79	1685.48
702.98	1726.44
703.17	1738.73
703.35	1714.15
703.54	1728.49
703.73	1722.34
703.92	1687.53
704.11	1689.57
704.30	1751.01
704.49	1748.97
704.68	1777.64
704.87	1658.85
705.06	1736.68
705.25	1681.38
705.43	1644.52
705.62	1628.14
705.81	1773.54
706.00	1720.29
706.19	1634.28
706.38	1716.20
706.57	1837.03
706.76	1667.05
706.95	1779.68
707.14	1765.35
707.32	1609.70
707.51	1613.80
707.70	1634.28
707.89	1722.34
708.08	1697.77
708.27	1759.21
708.46	1722.34
708.65	1673.19
708.84	1705.96
709.02	1691.62
709.21	1687.53
709.40	1662.95
709.59	1759.21
709.78	1646.57
709.97	1667.05
710.16	1808.36
710.34	1703.91
710.53	1736.68
710.72	1630.18
710.91	1716.20
711.10	1599.46
711.29	1689.57
711.48	1806.31
711.66	1757.16
711.85	1583.08
712.04	1701.86
712.23	1689.57
712.42	1644.52
712.61	1791.97
712.80	1640.42
712.98	1636.33
713.17	1646.57
713.36	1710.05
713.55	1773.54
713.74	1757.16
713.93	1800.16
714.11	1617.90
714.30	1589.22
714.49	1767.40
714.68	1683.43
714.87	1660.90
715.06	1869.80
715.24	1720.29
715.43	1689.57
715.62	1609.70
715.81	1687.53
716.00	1687.53
716.18	1609.70
716.37	1638.38
716.56	1656.81
716.75	1732.58
716.94	1662.95
717.12	1667.05
717.31	1714.15
717.50	1593.32
717.69	1654.76
717.88	1734.63
718.06	1667.05
718.25	1732.58
718.44	1650.66
718.63	1771.49
718.82	1611.75
719.00	1677.29
719.19	1849.32
719.38	1691.62
719.57	1679.33
719.76	1701.86
719.94	1603.56
720.13	1634.28
720.32	1775.59
720.51	1589.22
720.69	1738.73
720.88	1748.97
721.07	1722.34
721.26	1761.25
721.44	1687.53
721.63	1689.57
721.82	1646.57
722.01	1687.53
722.20	1646.57
722.38	1673.19
722.57	1585.13
722.76	1730.53
722.95	1650.66
723.13	1757.16
723.32	1732.58
723.51	1724.39
723.70	1789.92
723.88	1757.16
724.07	1644.52
724.26	1730.53
724.44	1671.14
724.63	1718.25
724.82	1675.24
725.01	1753.06
725.19	1615.85
725.38	1648.61
725.57	1619.94
725.76	1769.44
725.94	1597.42
726.13	1695.72
726.32	1656.81
726.51	1648.61
726.69	1667.05
726.88	1665.00
727.07	1796.07
727.25	1748.97
727.44	1685.48
727.63	1720.29
727.82	1720.29
728.00	1667.05
728.19	1689.57
728.38	1685.48
728.56	1601.51
728.75	1857.51
728.94	1802.21
729.12	1673.19
729.31	1699.81
729.50	1617.90
729.69	1652.71
729.87	1626.09
730.06	1642.47
730.25	1732.58
730.43	1705.96
730.62	1697.77
730.81	1650.66
730.99	1716.20
731.18	1642.47
731.37	1628.14
731.55	1705.96
731.74	1712.10
731.93	1621.99
732.11	1607.66
732.30	1601.51
732.49	1687.53
732.67	1628.14
732.86	1615.85
733.05	1624.04
733.23	1693.67
733.42	1630.18
733.61	1671.14
733.79	1683.43
733.98	1763.30
734.17	1605.61
734.35	1701.86
734.54	1703.91
734.73	1763.30
734.91	1601.51
735.10	1667.05
735.29	1693.67
735.47	1652.71
735.66	1665.00
735.84	1751.01
736.03	1695.72
736.22	1648.61
736.40	1654.76
736.59	1599.46
736.78	1603.56
736.96	1644.52
737.15	1775.59
737.33	1720.29
737.52	1716.20
737.71	1710.05
737.89	1681.38
738.08	1675.24
738.27	1724.39
738.45	1732.58
738.64	1714.15
738.82	1636.33
739.01	1746.92
739.20	1705.96
739.38	1708.01
739.57	1689.57
739.75	1716.20
739.94	1785.83
740.13	1542.12
740.31	1695.72
740.50	1734.63
740.68	1716.20
740.87	1675.24
741.06	1773.54
741.24	1740.77
741.43	1705.96
741.61	1687.53
741.80	1669.09
741.99	1626.09
742.17	1705.96
742.36	1646.57
742.54	1638.38
742.73	1818.60
742.91	1714.15
743.10	1597.42
743.29	1697.77
743.47	1771.49
743.66	1585.13
743.84	1695.72
744.03	1693.67
744.21	1720.29
744.40	1748.97
744.59	1716.20
744.77	1669.09
744.96	1703.91
745.14	1654.76
745.33	1619.94
745.51	1779.68
745.70	1671.14
745.88	1654.76
746.07	1634.28
746.26	1703.91
746.44	1640.42
746.63	1593.32
746.81	1712.10
747.00	1777.64
747.18	1708.01
747.37	1613.80
747.55	1691.62
747.74	1929.19
747.92	1613.80
748.11	1777.64
748.29	1650.66
748.48	1714.15
748.66	1687.53
748.85	1607.66
749.03	1634.28
749.22	1650.66
749.41	1640.42
749.59	1742.82
749.78	1679.33
749.96	1540.07
750.15	1634.28
750.33	1601.51
750.52	1572.84
750.70	1679.33
750.89	1748.97
751.07	1648.61
751.26	1703.91
751.44	1544.17
751.63	1665.00
751.81	1644.52
752.00	1597.42
752.18	1681.38
752.37	1753.06
752.55	1689.57
752.74	1601.51
752.92	1667.05
753.10	1650.66
753.29	1662.95
753.47	1624.04
753.66	1572.84
753.84	1654.76
754.03	1660.90
754.21	1718.25
754.40	1734.63
754.58	1794.02
754.77	1712.10
754.95	1689.57
755.14	1720.29
755.32	1699.81
755.51	1542.12
755.69	1683.43
755.88	1613.80
756.06	1783.78
756.24	1673.19
756.43	1699.81
756.61	1730.53
756.80	1617.90
756.98	1699.81
757.17	1761.25
757.35	1658.85
757.54	1630.18
757.72	1681.38
757.90	1585.13
758.09	1640.42
758.27	1650.66
758.46	1529.83
758.64	1789.92
758.83	1658.85
759.01	1728.49
759.19	1710.05
759.38	1640.42
759.56	1744.87
759.75	1548.26
759.93	1757.16
760.12	1665.00
760.30	1691.62
760.48	1660.90
760.67	1748.97
760.85	1628.14
761.04	1662.95
761.22	1662.95
761.40	1609.70
761.59	1648.61
761.77	1697.77
761.96	1726.44
762.14	1755.11
762.32	1710.05
762.51	1652.71
762.69	1667.05
762.88	1697.77
763.06	1681.38
763.24	1656.81
763.43	1671.14
763.61	1718.25
763.80	1619.94
763.98	1724.39
764.16	1517.54
764.35	1673.19
764.53	1581.03
764.72	1724.39
764.90	1638.38
765.08	1685.48
765.27	1732.58
765.45	1587.18
765.63	1681.38
765.82	1646.57
766.00	1646.57
766.18	1681.38
766.37	1646.57
766.55	1689.57
766.74	1658.85
766.92	1697.77
767.10	1609.70
767.29	1744.87
767.47	1628.14
767.65	1712.10
767.84	1697.77
768.02	1798.12
768.20	1716.20
768.39	1636.33
768.57	1646.57
768.75	1615.85
768.94	1746.92
769.12	1703.91
769.30	1621.99
769.49	1691.62
769.67	1677.29
769.85	1841.12
770.04	1574.89
770.22	1613.80
770.40	1691.62
770.59	1705.96
770.77	1720.29
770.95	1777.64
771.14	1755.11
771.32	1527.78
771.50	1556.46
771.69	1599.46
771.87	1638.38
772.05	1728.49
772.24	1621.99
772.42	1710.05
772.60	1621.99
772.78	1712.10
772.97	1558.50
773.15	1669.09
773.33	1693.67
773.52	1634.28
773.70	1679.33
773.88	1605.61
774.07	1564.65
774.25	1683.43
774.43	1658.85
774.61	1660.90
774.80	1654.76
774.98	1636.33
775.16	1669.09
775.34	1648.61
775.53	1734.63
775.71	1662.95
775.89	1689.57
776.08	1613.80
776.26	1636.33
776.44	1654.76
776.62	1716.20
776.81	1654.76
776.99	1691.62
777.17	1681.38
777.35	1726.44
777.54	1699.81
777.72	1636.33
777.90	1597.42
778.08	1660.90
778.27	1599.46
778.45	1646.57
778.63	1558.50
778.81	1691.62
779.00	1693.67
779.18	1683.43
779.36	1744.87
779.54	1738.73
779.73	1585.13
779.91	1619.94
780.09	1607.66
780.27	1650.66
780.46	1624.04
780.64	1611.75
780.82	1615.85
781.00	1724.39
781.19	1601.51
781.37	1683.43
781.55	1746.92
781.73	1671.14
781.91	1585.13
782.10	1726.44
782.28	1708.01
782.46	1662.95
782.64	1730.53
782.82	1714.15
783.01	1675.24
783.19	1710.05
783.37	1691.62
783.55	1705.96
783.74	1607.66
783.92	1626.09
784.10	1650.66
784.28	1693.67
784.46	1691.62
784.64	1630.18
784.83	1775.59
785.01	1769.44
785.19	1699.81
785.37	1808.36
785.55	1646.57
785.74	1675.24
785.92	1638.38
786.10	1665.00
786.28	1748.97
786.46	1734.63
786.64	1675.24
786.83	1630.18
787.01	1687.53
787.19	1851.36
787.37	1765.35
787.55	1679.33
787.74	1613.80
787.92	1691.62
788.10	1640.42
788.28	1568.74
788.46	1617.90
788.64	1669.09
788.82	1667.05
789.01	1673.19
789.19	1691.62
789.37	1669.09
789.55	1687.53
789.73	1669.09
789.91	1691.62
790.09	1677.29
790.28	1601.51
790.46	1603.56
790.64	1732.58
790.82	1654.76
791.00	1595.37
791.18	1703.91
791.36	1712.10
791.55	1748.97
791.73	1642.47
791.91	1658.85
792.09	1630.18
792.27	1691.62
792.45	1634.28
792.63	1728.49
792.81	1660.90
793.00	1667.05
793.18	1654.76
793.36	1695.72
793.54	1683.43
793.72	1683.43
793.90	1697.77
794.08	1593.32
794.26	1705.96
794.44	1605.61
794.62	1642.47
794.81	1644.52
794.99	1675.24
795.17	1699.81
795.35	1667.05
795.53	1714.15
795.71	1685.48
795.89	1665.00
796.07	1632.23
796.25	1624.04
796.43	1667.05
796.61	1683.43
796.80	1646.57
796.98	1695.72
797.16	1724.39
797.34	1642.47
797.52	1578.98
797.70	1662.95
797.88	1716.20
798.06	1624.04
798.24	1708.01
798.42	1695.72
798.60	1751.01
798.78	1634.28
798.96	1734.63
799.14	1685.48
799.32	1787.88
799.51	1595.37
799.69	1834.98
799.87	1718.25
800.05	1630.18
800.23	1621.99
800.41	1667.05
800.59	1669.09
800.77	1624.04
800.95	1468.39
801.13	1753.06
801.31	1679.33
801.49	1730.53
801.67	1644.52
801.85	1568.74
802.03	1699.81
802.21	1703.91
802.39	1660.90
802.57	1669.09
802.75	1742.82
802.93	1611.75
803.11	1593.32
803.29	1595.37
803.47	1662.95
803.65	1624.04
803.83	1576.94
804.01	1638.38
804.19	1558.50
804.37	1617.90
804.55	1646.57
804.73	1638.38
804.91	1609.70
805.09	1648.61
805.27	1675.24
805.45	1691.62
805.63	1630.18
805.81	1634.28
805.99	1703.91
806.17	1615.85
806.35	1611.75
806.53	1642.47
806.71	1703.91
806.89	1628.14
807.07	1691.62
807.25	1738.73
807.43	1533.93
807.61	1732.58
807.79	1718.25
807.97	1658.85
808.15	1695.72
808.33	1720.29
808.51	1830.88
808.69	1730.53
808.87	1601.51
809.05	1599.46
809.23	1628.14
809.41	1548.26
809.59	1644.52
809.77	1744.87
809.95	1617.90
810.13	1689.57
810.31	1656.81
810.49	1689.57
810.67	1679.33
810.84	1736.68
811.02	1732.58
811.20	1607.66
811.38	1742.82
811.56	1583.08
811.74	1667.05
811.92	1624.04
812.10	1742.82
812.28	1746.92
812.46	1646.57
812.64	1640.42
812.82	1605.61
813.00	1708.01
813.18	1681.38
813.36	1673.19
813.53	1585.13
813.71	1705.96
813.89	1656.81
814.07	1599.46
814.25	1687.53
814.43	1654.76
814.61	1650.66
814.79	1640.42
814.97	1634.28
815.15	1710.05
815.33	1636.33
815.50	1646.57
815.68	1583.08
815.86	1677.29
816.04	1726.44
816.22	1646.57
816.40	1718.25
816.58	1652.71
816.76	1609.70
816.94	1695.72
817.11	1591.27
817.29	1636.33
817.47	1716.20
817.65	1675.24
817.83	1728.49
818.01	1636.33
818.19	1546.22
818.37	1699.81
818.54	1718.25
818.72	1634.28
818.90	1699.81
819.08	1658.85
819.26	1642.47
819.44	1765.35
819.62	1665.00
819.80	1607.66
819.97	1712.10
820.15	1660.90
820.33	1617.90
820.51	1562.60
820.69	1652.71
820.87	1722.34
821.05	1720.29
821.22	1560.55
821.40	1685.48
821.58	1675.24
821.76	1669.09
821.94	1628.14
822.12	1703.91
822.29	1697.77
822.47	1609.70
822.65	1626.09
822.83	1589.22
823.01	1689.57
823.19	1570.79
823.36	1634.28
823.54	1644.52
823.72	1708.01
823.90	1710.05
824.08	1632.23
824.25	1681.38
824.43	1710.05
824.61	1601.51
824.79	1691.62
824.97	1636.33
825.15	1785.83
825.32	1697.77
825.50	1710.05
825.68	1574.89
825.86	1640.42
826.04	1634.28
826.21	1708.01
826.39	1570.79
826.57	1599.46
826.75	1703.91
826.93	1683.43
827.10	1650.66
827.28	1607.66
827.46	1714.15
827.64	1755.11
827.81	1646.57
827.99	1621.99
828.17	1642.47
828.35	1595.37
828.53	1589.22
828.70	1609.70
828.88	1640.42
829.06	1634.28
829.24	1658.85
829.41	1699.81
829.59	1722.34
829.77	1591.27
829.95	1697.77
830.12	1615.85
830.30	1689.57
830.48	1716.20
830.66	1591.27
830.84	1626.09
831.01	1665.00
831.19	1601.51
831.37	1681.38
831.55	1652.71
831.72	1638.38
831.90	1662.95
832.08	1677.29
832.25	1683.43
832.43	1609.70
832.61	1648.61
832.79	1572.84
832.96	1648.61
833.14	1722.34
833.32	1652.71
833.50	1591.27
833.67	1621.99
833.85	1581.03
834.03	1574.89
834.20	1712.10
834.38	1650.66
834.56	1724.39
834.74	1632.23
834.91	1626.09
835.09	1751.01
835.27	1681.38
835.44	1687.53
835.62	1587.18
835.80	1667.05
835.98	1646.57
836.15	1732.58
836.33	1613.80
836.51	1564.65
836.68	1665.00
836.86	1648.61
837.04	1687.53
837.21	1777.64
837.39	1685.48
837.57	1665.00
837.75	1634.28
837.92	1660.90
838.10	1628.14
838.28	1646.57
838.45	1634.28
838.63	1542.12
838.81	1656.81
838.98	1705.96
839.16	1755.11
839.34	1630.18
839.51	1712.10
839.69	1568.74
839.87	1562.60
840.04	1640.42
840.22	1906.66
840.40	1656.81
840.57	1558.50
840.75	1642.47
840.93	1687.53
841.10	1589.22
841.28	1667.05
841.46	1650.66
841.63	1746.92
841.81	1568.74
841.98	1540.07
842.16	1765.35
842.34	1599.46
842.51	1544.17
842.69	1646.57
842.87	1566.70
843.04	1624.04
843.22	1599.46
843.40	1619.94
843.57	1583.08
843.75	1601.51
843.92	1722.34
844.10	1691.62
844.28	1697.77
844.45	1570.79
844.63	1583.08
844.81	1687.53
844.98	1615.85
845.16	1740.77
845.33	1726.44
845.51	1632.23
845.69	1617.90
845.86	1806.31
846.04	1597.42
846.21	1626.09
846.39	1585.13
846.57	1585.13
846.74	1630.18
846.92	1746.92
847.09	1554.41
847.27	1712.10
847.45	1679.33
847.62	1621.99
847.80	1667.05
847.97	1708.01
848.15	1634.28
848.32	1617.90
848.50	1675.24
848.68	1597.42
848.85	1658.85
849.03	1566.70
849.20	1662.95
849.38	1689.57
849.56	1624.04
849.73	1511.40
849.91	1601.51
850.08	1660.90
850.26	1556.46
850.43	1675.24
850.61	1687.53
850.78	1585.13
850.96	1699.81
851.14	1546.22
851.31	1732.58
851.49	1697.77
851.66	1683.43
851.84	1544.17
852.01	1583.08
852.19	1652.71
852.36	1638.38
852.54	1697.77
852.71	1679.33
852.89	1634.28
853.07	1646.57
853.24	1628.14
853.42	1687.53
853.59	1708.01
853.77	1703.91
853.94	1681.38
854.12	1730.53
854.29	1552.36
854.47	1640.42
854.64	1667.05
854.82	1708.01
854.99	1675.24
855.17	1619.94
855.34	1568.74
855.52	1638.38
855.69	1804.26
855.87	1607.66
856.04	1662.95
856.22	1607.66
856.39	1552.36
856.57	1605.61
856.74	1621.99
856.92	1771.49
857.09	1624.04
857.27	1675.24
857.44	1624.04
857.62	1753.06
857.79	1687.53
857.97	1667.05
858.14	1624.04
858.32	1665.00
858.49	1603.56
858.67	1556.46
858.84	1636.33
859.02	1738.73
859.19	1669.09
859.37	1515.50
859.54	1591.27
859.72	1650.66
859.89	1683.43
860.06	1529.83
860.24	1650.66
860.41	1716.20
860.59	1617.90
860.76	1746.92
860.94	1581.03
861.11	1662.95
861.29	1693.67
861.46	1591.27
861.64	1624.04
861.81	1714.15
861.98	1667.05
862.16	1738.73
862.33	1581.03
862.51	1560.55
862.68	1642.47
862.86	1615.85
863.03	1640.42
863.21	1716.20
863.38	1615.85
863.55	1597.42
863.73	1660.90
863.90	1699.81
864.08	1671.14
864.25	1699.81
864.43	1650.66
864.60	1560.55
864.77	1607.66
864.95	1665.00
865.12	1576.94
865.30	1699.81
865.47	1681.38
865.64	1587.18
865.82	1650.66
865.99	1771.49
866.17	1634.28
866.34	1716.20
866.51	1515.50
866.69	1763.30
866.86	1802.21
867.04	1751.01
867.21	1572.84
867.38	1646.57
867.56	1632.23
867.73	1624.04
867.91	1689.57
868.08	1595.37
868.25	1607.66
868.43	1615.85
868.60	1646.57
868.78	1591.27
868.95	1687.53
869.12	1785.83
869.30	1630.18
869.47	1636.33
869.64	1708.01
869.82	1638.38
869.99	1697.77
870.16	1716.20
870.34	1656.81
870.51	1730.53
870.69	1546.22
870.86	1712.10
871.03	1726.44
871.21	1613.80
871.38	1718.25
871.55	1679.33
871.73	1613.80
871.90	1654.76
872.07	1644.52
872.25	1578.98
872.42	1640.42
872.59	1611.75
872.77	1667.05
872.94	1626.09
873.11	1636.33
873.29	1804.26
873.46	1576.94
873.63	1734.63
873.81	1587.18
873.98	1665.00
874.15	1628.14
874.33	1632.23
874.50	1691.62
874.67	1734.63
874.85	1650.66
875.02	1609.70
875.19	1578.98
875.37	1640.42
875.54	1619.94
875.71	1609.70
875.88	1732.58
876.06	1718.25
876.23	1716.20
876.40	1652.71
876.58	1589.22
876.75	1757.16
876.92	1675.24
877.10	1656.81
877.27	1624.04
877.44	1722.34
877.61	1638.38
877.79	1699.81
877.96	1662.95
878.13	1581.03
878.31	1611.75
878.48	1585.13
878.65	1738.73
878.82	1576.94
879.00	1617.90
879.17	1617.90
879.34	1689.57
879.51	1589.22
879.69	1650.66
879.86	1535.98
880.03	1667.05
880.21	1650.66
880.38	1611.75
880.55	1712.10
880.72	1722.34
880.90	1650.66
881.07	1558.50
881.24	1699.81
881.41	1611.75
881.59	1708.01
881.76	1611.75
881.93	1644.52
882.10	1714.15
882.28	1615.85
882.45	1693.67
882.62	1675.24
882.79	1699.81
882.96	1581.03
883.14	1671.14
883.31	1759.21
883.48	1615.85
883.65	1609.70
883.83	1617.90
884.00	1693.67
884.17	1613.80
884.34	1705.96
884.51	1753.06
884.69	1656.81
884.86	1640.42
885.03	1589.22
885.20	1578.98
885.38	1705.96
885.55	1675.24
885.72	1644.52
885.89	1593.32
886.06	1724.39
886.24	1675.24
886.41	1658.85
886.58	1765.35
886.75	1626.09
886.92	1574.89
887.10	1574.89
887.27	1605.61
887.44	1724.39
887.61	1691.62
887.78	1681.38
887.95	1658.85
888.13	1613.80
888.30	1648.61
888.47	1581.03
888.64	1626.09
888.81	1726.44
888.99	1552.36
889.16	1624.04
889.33	1662.95
889.50	1644.52
889.67	1572.84
889.84	1654.76
890.01	1658.85
890.19	1687.53
890.36	1716.20
890.53	1634.28
890.70	1656.81
890.87	1662.95
891.04	1607.66
891.22	1617.90
891.39	1574.89
891.56	1585.13
891.73	1646.57
891.90	1626.09
892.07	1546.22
892.24	1712.10
892.42	1662.95
892.59	1630.18
892.76	1689.57
892.93	1556.46
893.10	1605.61
893.27	1656.81
893.44	1535.98
893.61	1646.57
893.79	1685.48
893.96	1650.66
894.13	1628.14
894.30	1554.41
894.47	1732.58
894.64	1730.53
894.81	1650.66
894.98	1658.85
895.15	1689.57
895.33	1722.34
895.50	1626.09
895.67	1572.84
895.84	1712.10
896.01	1609.70
896.18	1605.61
896.35	1810.40
896.52	1615.85
896.69	1652.71
896.86	1626.09
897.04	1710.05
897.21	1640.42
897.38	1609.70
897.55	1753.06
897.72	1736.68
897.89	1628.14
898.06	1691.62
898.23	1613.80
898.40	1728.49
898.57	1599.46
898.74	1650.66
898.91	1585.13
899.08	1615.85
899.26	1646.57
899.43	1708.01
899.60	1646.57
899.77	1712.10
899.94	1695.72
900.11	1673.19
900.28	1669.09
900.45	1662.95
900.62	1544.17
900.79	1648.61
900.96	1708.01
901.13	1603.56
901.30	1646.57
901.47	1601.51
901.64	1613.80
901.81	1742.82
901.98	1562.60
902.15	1720.29
902.32	1578.98
902.49	1642.47
902.66	1642.47
902.83	1595.37
903.01	1662.95
903.18	1636.33
903.35	1632.23
903.52	1638.38
903.69	1640.42
903.86	1632.23
904.03	1658.85
904.20	1705.96
904.37	1607.66
904.54	1499.11
904.71	1550.31
904.88	1634.28
905.05	1535.98
905.22	1630.18
905.39	1566.70
905.56	1626.09
905.73	1615.85
905.90	1679.33
906.07	1740.77
906.24	1654.76
906.41	1619.94
906.58	1701.86
906.75	1609.70
906.92	1638.38
907.09	1550.31
907.26	1667.05
907.43	1550.31
907.60	1667.05
907.77	1628.14
907.93	1646.57
908.10	1517.54
908.27	1726.44
908.44	1595.37
908.61	1566.70
908.78	1650.66
908.95	1765.35
909.12	1609.70
909.29	1669.09
909.46	1630.18
909.63	1660.90
909.80	1638.38
909.97	1644.52
910.14	1662.95
910.31	1644.52
910.48	1591.27
910.65	1667.05
910.82	1638.38
910.99	1689.57
911.16	1654.76
911.33	1634.28
911.50	1628.14
911.66	1650.66
911.83	1671.14
912.00	1585.13
912.17	1527.78
912.34	1533.93
912.51	1662.95
912.68	1605.61
912.85	1736.68
913.02	1730.53
913.19	1636.33
913.36	1693.67
913.53	1798.12
913.70	1558.50
913.86	1753.06
914.03	1687.53
914.20	1662.95
914.37	1640.42
914.54	1576.94
914.71	1689.57
914.88	1669.09
915.05	1585.13
915.22	1640.42
915.39	1613.80
915.55	1669.09
915.72	1568.74
915.89	1583.08
916.06	1632.23
916.23	1591.27
916.40	1695.72
916.57	1624.04
916.74	1714.15
916.91	1658.85
917.07	1617.90
917.24	1611.75
917.41	1712.10
917.58	1685.48
917.75	1628.14
917.92	1501.16
918.09	1648.61
918.26	1595.37
918.42	1599.46
918.59	1708.01
918.76	1626.09
918.93	1611.75
919.10	1615.85
919.27	1591.27
919.44	1716.20
919.60	1693.67
919.77	1681.38
919.94	1578.98
920.11	1599.46
920.28	1693.67
920.45	1648.61
920.61	1593.32
920.78	1632.23
920.95	1683.43
921.12	1654.76
921.29	1511.40
921.46	1548.26
921.62	1599.46
921.79	1736.68
921.96	1665.00
922.13	1640.42
922.30	1626.09
922.47	1650.66
922.63	1634.28
922.80	1621.99
922.97	1576.94
923.14	1499.11
923.31	1650.66
923.47	1656.81
923.64	1789.92
923.81	1617.90
923.98	1769.44
924.15	1550.31
924.32	1736.68
924.48	1712.10
924.65	1732.58
924.82	1603.56
924.99	1605.61
925.15	1601.51
925.32	1691.62
925.49	1597.42
925.66	1667.05
925.83	1615.85
925.99	1609.70
926.16	1697.77
926.33	1611.75
926.50	1460.20
926.67	1564.65
926.83	1578.98
927.00	1722.34
927.17	1634.28
927.34	1587.18
927.50	1646.57
927.67	1834.98
927.84	1728.49
928.01	1646.57
928.17	1671.14
928.34	1597.42
928.51	1607.66
928.68	1593.32
928.84	1589.22
929.01	1609.70
929.18	1585.13
929.35	1703.91
929.51	1656.81
929.68	1671.14
929.85	1558.50
930.02	1621.99
930.18	1636.33
930.35	1681.38
930.52	1601.51
930.69	1662.95
930.85	1691.62
931.02	1558.50
931.19	1595.37
931.36	1507.30
931.52	1660.90
931.69	1675.24
931.86	1628.14
932.02	1581.03
932.19	1609.70
932.36	1611.75
932.53	1691.62
932.69	1601.51
932.86	1769.44
933.03	1595.37
933.19	1501.16
933.36	1609.70
933.53	1693.67
933.70	1675.24
933.86	1638.38
934.03	1681.38
934.20	1605.61
934.36	1656.81
934.53	1599.46
934.70	1597.42
934.86	1630.18
935.03	1619.94
935.20	1642.47
935.36	1632.23
935.53	1552.36
935.70	1624.04
935.86	1689.57
936.03	1607.66
936.20	1462.25
936.36	1671.14
936.53	1683.43
936.70	1656.81
936.86	1708.01
937.03	1626.09
937.20	1550.31
937.36	1734.63
937.53	1554.41
937.70	1609.70
937.86	1638.38
938.03	1695.72
938.20	1730.53
938.36	1708.01
938.53	1581.03
938.70	1576.94
938.86	1609.70
939.03	1562.60
939.20	1527.78
939.36	1650.66
939.53	1681.38
939.70	1841.12
939.86	1658.85
940.03	1585.13
940.19	1611.75
940.36	1665.00
940.53	1605.61
940.69	1632.23
940.86	1656.81
941.03	1558.50
941.19	1572.84
941.36	1728.49
941.52	1607.66
941.69	1673.19
941.86	1693.67
942.02	1662.95
942.19	1638.38
942.35	1671.14
942.52	1630.18
942.69	1656.81
942.85	1572.84
943.02	1591.27
943.18	1644.52
943.35	1695.72
943.52	1599.46
943.68	1593.32
943.85	1687.53
944.01	1652.71
944.18	1650.66
944.35	1660.90
944.51	1644.52
944.68	1574.89
944.84	1634.28
945.01	1636.33
945.17	1681.38
945.34	1736.68
945.51	1718.25
945.67	1585.13
945.84	1628.14
946.00	1630.18
946.17	1648.61
946.33	1624.04
946.50	1738.73
946.67	1597.42
946.83	1613.80
947.00	1638.38
947.16	1613.80
947.33	1687.53
947.49	1728.49
947.66	1533.93
947.82	1656.81
947.99	1499.11
948.16	1689.57
948.32	1585.13
948.49	1726.44
948.65	1705.96
948.82	1583.08
948.98	1681.38
949.15	1642.47
949.31	1650.66
949.48	1613.80
949.64	1644.52
949.81	1552.36
949.97	1636.33
950.14	1681.38
950.30	1568.74
950.47	1638.38
950.63	1640.42
950.80	1636.33
950.96	1630.18
951.13	1679.33
951.30	1560.55
951.46	1607.66
951.63	1687.53
951.79	1667.05
951.96	1660.90
952.12	1605.61
952.29	1708.01
952.45	1601.51
952.62	1554.41
952.78	1689.57
952.94	1619.94
953.11	1646.57
953.27	1533.93
953.44	1658.85
953.60	1648.61
953.77	1634.28
953.93	1675.24
954.10	1705.96
954.26	1624.04
954.43	1581.03
954.59	1675.24
954.76	1656.81
954.92	1628.14
955.09	1626.09
955.25	1601.51
955.42	1626.09
955.58	1720.29
955.75	1681.38
955.91	1646.57
956.07	1619.94
956.24	1718.25
956.40	1660.90
956.57	1671.14
956.73	1675.24
956.90	1722.34
957.06	1607.66
957.23	1581.03
957.39	1681.38
957.56	1609.70
957.72	1585.13
957.88	1562.60
958.05	1718.25
958.21	1673.19
958.38	1581.03
958.54	1650.66
958.71	1738.73
958.87	1593.32
959.03	1572.84
959.20	1685.48
959.36	1554.41
959.53	1564.65
959.69	1542.12
959.85	1630.18
960.02	1591.27
960.18	1644.52
960.35	1638.38
960.51	1726.44
960.68	1581.03
960.84	1679.33
961.00	1556.46
961.17	1638.38
961.33	1595.37
961.50	1587.18
961.66	1603.56
961.82	1603.56
961.99	1607.66
962.15	1605.61
962.31	1628.14
962.48	1562.60
962.64	1697.77
962.81	1656.81
962.97	1607.66
963.13	1648.61
963.30	1593.32
963.46	1589.22
963.62	1560.55
963.79	1613.80
963.95	1646.57
964.12	1591.27
964.28	1683.43
964.44	1585.13
964.61	1667.05
964.77	1658.85
964.93	1759.21
965.10	1634.28
965.26	1607.66
965.42	1589.22
965.59	1572.84
965.75	1624.04
965.92	1574.89
966.08	1593.32
966.24	1615.85
966.41	1499.11
966.57	1712.10
966.73	1585.13
966.90	1732.58
967.06	1597.42
967.22	1619.94
967.39	1656.81
967.55	1587.18
967.71	1646.57
967.88	1671.14
968.04	1648.61
968.20	1558.50
968.37	1576.94
968.53	1576.94
968.69	1628.14
968.85	1673.19
969.02	1632.23
969.18	1757.16
969.34	1576.94
969.51	1683.43
969.67	1671.14
969.83	1607.66
970.00	1738.73
970.16	1628.14
970.32	1662.95
970.48	1732.58
970.65	1656.81
970.81	1595.37
970.97	1687.53
971.14	1562.60
971.30	1701.86
971.46	1632.23
971.63	1669.09
971.79	1677.29
971.95	1638.38
972.11	1583.08
972.28	1572.84
972.44	1644.52
972.60	1538.02
972.76	1621.99
972.93	1632.23
973.09	1691.62
973.25	1646.57
973.42	1611.75
973.58	1720.29
973.74	1681.38
973.90	1683.43
974.07	1640.42
974.23	1650.66
974.39	1554.41
974.55	1632.23
974.72	1591.27
974.88	1546.22
975.04	1691.62
975.20	1642.47
975.37	1626.09
975.53	1681.38
975.69	1642.47
975.85	1560.55
976.01	1589.22
976.18	1583.08
976.34	1599.46
976.50	1687.53
976.66	1718.25
976.83	1646.57
976.99	1542.12
977.15	1697.77
977.31	1509.35
977.47	1720.29
977.64	1638.38
977.80	1681.38
977.96	1695.72
978.12	1626.09
978.29	1662.95
978.45	1630.18
978.61	1632.23
978.77	1687.53
978.93	1527.78
979.10	1609.70
979.26	1566.70
979.42	1656.81
979.58	1548.26
979.74	1593.32
979.91	1710.05
980.07	1581.03
980.23	1640.42
980.39	1593.32
980.55	1671.14
980.71	1630.18
980.88	1519.59
981.04	1591.27
981.20	1624.04
981.36	1697.77
981.52	1654.76
981.68	1576.94
981.85	1701.86
982.01	1626.09
982.17	1570.79
982.33	1558.50
982.49	1626.09
982.65	1615.85
982.82	1593.32
982.98	1589.22
983.14	1531.88
983.30	1613.80
983.46	1665.00
983.62	1677.29
983.79	1605.61
983.95	1560.55
984.11	1603.56
984.27	1556.46
984.43	1611.75
984.59	1562.60
984.75	1667.05
984.91	1650.66
985.08	1677.29
985.24	1488.87
985.40	1585.13
985.56	1603.56
985.72	1634.28
985.88	1705.96
986.04	1564.65
986.20	1572.84
986.37	1665.00
986.53	1619.94
986.69	1542.12
986.85	1597.42
987.01	1640.42
987.17	1624.04
987.33	1646.57
987.49	1605.61
987.65	1662.95
987.82	1714.15
987.98	1554.41
988.14	1583.08
988.30	1626.09
988.46	1552.36
988.62	1665.00
988.78	1605.61
988.94	1658.85
989.10	1595.37
989.26	1552.36
989.42	1626.09
989.59	1538.02
989.75	1640.42
989.91	1798.12
990.07	1607.66
990.23	1587.18
990.39	1677.29
990.55	1734.63
990.71	1564.65
990.87	1626.09
991.03	1636.33
991.19	1572.84
991.35	1603.56
991.51	1671.14
991.67	1599.46
991.83	1595.37
992.00	1591.27
992.16	1660.90
992.32	1589.22
992.48	1685.48
992.64	1587.18
992.80	1585.13
992.96	1603.56
993.12	1597.42
993.28	1589.22
993.44	1624.04
993.60	1677.29
993.76	1660.90
993.92	1585.13
994.08	1656.81
994.24	1642.47
994.40	1591.27
994.56	1671.14
994.72	1644.52
994.88	1574.89
995.04	1654.76
995.20	1607.66
995.36	1626.09
995.52	1630.18
995.68	1654.76
995.84	1570.79
996.00	1708.01
996.16	1652.71
996.32	1578.98
996.48	1613.80
996.64	1656.81
996.80	1546.22
996.96	1607.66
997.12	1597.42
997.28	1599.46
997.44	1548.26
997.60	1613.80
997.76	1597.42
997.92	1662.95
998.08	1632.23
998.24	1589.22
998.40	1636.33
998.56	1695.72
998.72	1542.12
998.88	1542.12
999.04	1605.61
999.20	1755.11
999.36	1521.64
999.52	1708.01
999.68	1665.00
999.84	1701.86
1000.00	1662.95
1000.16	1722.34
1000.32	1574.89
1000.48	1740.77
1000.64	1560.55
1000.80	1548.26
1000.95	1535.98
1001.11	1613.80
1001.27	1574.89
1001.43	1607.66
1001.59	1523.69
1001.75	1581.03
1001.91	1585.13
1002.07	1554.41
1002.23	1650.66
1002.39	1585.13
1002.55	1589.22
1002.71	1628.14
1002.87	1572.84
1003.03	1597.42
1003.19	1576.94
1003.34	1695.72
1003.50	1568.74
1003.66	1675.24
1003.82	1660.90
1003.98	1626.09
1004.14	1609.70
1004.30	1601.51
1004.46	1597.42
1004.62	1585.13
1004.78	1630.18
1004.94	1650.66
1005.09	1660.90
1005.25	1693.67
1005.41	1589.22
1005.57	1685.48
1005.73	1644.52
1005.89	1587.18
1006.05	1593.32
1006.21	1589.22
1006.37	1535.98
1006.52	1538.02
1006.68	1523.69
1006.84	1728.49
1007.00	1595.37
1007.16	1615.85
1007.32	1540.07
1007.48	1599.46
1007.64	1617.90
1007.79	1574.89
1007.95	1566.70
1008.11	1695.72
1008.27	1667.05
1008.43	1605.61
1008.59	1581.03
1008.75	1687.53
1008.91	1681.38
1009.06	1560.55
1009.22	1656.81
1009.38	1601.51
1009.54	1632.23
1009.70	1589.22
1009.86	1642.47
1010.01	1679.33
1010.17	1511.40
1010.33	1720.29
1010.49	1654.76
1010.65	1640.42
1010.81	1587.18
1010.96	1671.14
1011.12	1634.28
1011.28	1611.75
1011.44	1689.57
1011.60	1626.09
1011.76	1589.22
1011.91	1671.14
1012.07	1589.22
1012.23	1552.36
1012.39	1591.27
1012.55	1587.18
1012.71	1540.07
1012.86	1576.94
1013.02	1607.66
1013.18	1609.70
1013.34	1673.19
1013.50	1652.71
1013.65	1675.24
1013.81	1511.40
1013.97	1527.78
1014.13	1595.37
1014.29	1570.79
1014.44	1712.10
1014.60	1607.66
1014.76	1558.50
1014.92	1585.13
1015.07	1650.66
1015.23	1607.66
1015.39	1556.46
1015.55	1656.81
1015.71	1689.57
1015.86	1597.42
1016.02	1552.36
1016.18	1578.98
1016.34	1527.78
1016.49	1603.56
1016.65	1603.56
1016.81	1638.38
1016.97	1552.36
1017.12	1697.77
1017.28	1591.27
1017.44	1648.61
1017.60	1607.66
1017.75	1607.66
1017.91	1603.56
1018.07	1605.61
1018.23	1662.95
1018.38	1550.31
1018.54	1544.17
1018.70	1626.09
1018.86	1558.50
1019.01	1564.65
1019.17	1640.42
1019.33	1773.54
1019.49	1646.57
1019.64	1611.75
1019.80	1642.47
1019.96	1689.57
1020.12	1611.75
1020.27	1511.40
1020.43	1558.50
1020.59	1679.33
1020.74	1638.38
1020.90	1710.05
1021.06	1564.65
1021.22	1605.61
1021.37	1632.23
1021.53	1558.50
1021.69	1640.42
1021.84	1634.28
1022.00	1572.84
1022.16	1613.80
1022.31	1593.32
1022.47	1675.24
1022.63	1683.43
1022.79	1482.73
1022.94	1619.94
1023.10	1685.48
1023.26	1570.79
1023.41	1503.21
1023.57	1593.32
1023.73	1634.28
1023.88	1615.85
1024.04	1607.66
1024.20	1628.14
1024.35	1568.74
1024.51	1621.99
1024.67	1613.80
1024.82	1716.20
1024.98	1593.32
1025.14	1628.14
1025.29	1628.14
1025.45	1619.94
1025.61	1554.41
1025.76	1634.28
1025.92	1585.13
1026.08	1710.05
1026.23	1660.90
1026.39	1638.38
1026.55	1578.98
1026.70	1634.28
1026.86	1636.33
1027.02	1595.37
1027.17	1662.95
1027.33	1658.85
1027.48	1558.50
1027.64	1603.56
1027.80	1636.33
1027.95	1648.61
1028.11	1505.26
1028.27	1679.33
1028.42	1646.57
1028.58	1581.03
1028.73	1669.09
1028.89	1585.13
1029.05	1691.62
1029.20	1691.62
>>>>>End Processed Spectral Data<<<<<
