SpectraSuite Data File
++++++++++++++++++++++++++++++++++++
Date: Fri Jun 02 14:44:31 CEST 2017
User: INFO_000
Dark Spectrum Present: No
Reference Spectrum Present: No
Number of Sampled Component Spectra: 1
Spectrometers: USB4H00879
Integration Time (usec): 80000 (USB4H00879)
Spectra Averaged: 1 (USB4H00879)
Boxcar Smoothing: 0 (USB4H00879)
Correct for Electrical Dark: No (USB4H00879)
Strobe/Lamp Enabled: No (USB4H00879)
Correct for Detector Non-linearity: No (USB4H00879)
Correct for Stray Light: No (USB4H00879)
Number of Pixels in Processed Spectrum: 3648
>>>>>Begin Processed Spectral Data<<<<<
345.13	1294.32
345.34	1294.32
345.56	1294.32
345.78	1265.64
345.99	1275.88
346.21	1695.72
346.42	1642.47
346.64	1591.27
346.86	1728.49
347.07	1667.05
347.29	1679.33
347.50	1591.27
347.72	1689.57
347.94	1806.31
348.15	1591.27
348.37	1656.81
348.59	1675.24
348.80	1593.32
349.02	1679.33
349.23	1763.30
349.45	1705.96
349.67	1740.77
349.88	1689.57
350.10	1804.26
350.31	1730.53
350.53	1771.49
350.75	1865.70
350.96	1638.38
351.18	1732.58
351.39	1665.00
351.61	1671.14
351.82	1757.16
352.04	1871.84
352.26	1619.94
352.47	1730.53
352.69	1839.08
352.90	1558.50
353.12	1728.49
353.34	1673.19
353.55	1828.84
353.77	1710.05
353.98	1603.56
354.20	1638.38
354.41	1722.34
354.63	1781.73
354.85	1812.45
355.06	1728.49
355.28	1611.75
355.49	1740.77
355.71	1646.57
355.92	1691.62
356.14	1783.78
356.35	1660.90
356.57	1665.00
356.79	1732.58
357.00	1642.47
357.22	1759.21
357.43	1621.99
357.65	1722.34
357.86	1601.51
358.08	1738.73
358.29	1728.49
358.51	1824.74
358.72	1656.81
358.94	1730.53
359.16	1722.34
359.37	1648.61
359.59	1665.00
359.80	1732.58
360.02	1757.16
360.23	1677.29
360.45	1761.25
360.66	1697.77
360.88	1581.03
361.09	1718.25
361.31	1759.21
361.52	1693.67
361.74	1824.74
361.95	1757.16
362.17	1681.38
362.38	1828.84
362.60	1789.92
362.81	1722.34
363.03	1667.05
363.24	1763.30
363.46	1683.43
363.67	1763.30
363.89	1703.91
364.10	1714.15
364.32	1679.33
364.53	1767.40
364.75	1599.46
364.96	1650.66
365.18	1794.02
365.39	1720.29
365.61	1583.08
365.82	1734.63
366.04	1609.70
366.25	1642.47
366.47	1753.06
366.68	1740.77
366.90	1613.80
367.11	1728.49
367.33	1759.21
367.54	1765.35
367.76	1675.24
367.97	1767.40
368.19	1746.92
368.40	1687.53
368.62	1650.66
368.83	1607.66
369.05	1722.34
369.26	1583.08
369.48	1652.71
369.69	1617.90
369.91	1665.00
370.12	1744.87
370.33	1802.21
370.55	1697.77
370.76	1716.20
370.98	1769.44
371.19	1662.95
371.41	1621.99
371.62	1722.34
371.84	1650.66
372.05	1841.12
372.27	1693.67
372.48	1648.61
372.69	1705.96
372.91	1748.97
373.12	1748.97
373.34	1675.24
373.55	1728.49
373.77	1726.44
373.98	1626.09
374.20	1777.64
374.41	1789.92
374.62	1691.62
374.84	1763.30
375.05	1740.77
375.27	1740.77
375.48	1597.42
375.70	1728.49
375.91	1783.78
376.12	1830.88
376.34	1656.81
376.55	1685.48
376.77	1808.36
376.98	1648.61
377.19	1581.03
377.41	1654.76
377.62	1708.01
377.84	1771.49
378.05	1740.77
378.27	1626.09
378.48	1798.12
378.69	1859.56
378.91	1728.49
379.12	1669.09
379.34	1660.90
379.55	1783.78
379.76	1781.73
379.98	1675.24
380.19	1626.09
380.41	1681.38
380.62	1712.10
380.83	1748.97
381.05	1683.43
381.26	1843.17
381.47	1679.33
381.69	1695.72
381.90	1781.73
382.12	1718.25
382.33	1679.33
382.54	1710.05
382.76	1804.26
382.97	1687.53
383.19	1667.05
383.40	1722.34
383.61	1701.86
383.83	1673.19
384.04	1677.29
384.25	1716.20
384.47	1732.58
384.68	1687.53
384.89	1581.03
385.11	1671.14
385.32	1675.24
385.54	1611.75
385.75	1658.85
385.96	1628.14
386.18	1740.77
386.39	1759.21
386.60	1619.94
386.82	1716.20
387.03	1658.85
387.24	1761.25
387.46	1695.72
387.67	1667.05
387.88	1742.82
388.10	1640.42
388.31	1662.95
388.52	1722.34
388.74	1662.95
388.95	1640.42
389.16	1691.62
389.38	1640.42
389.59	1714.15
389.80	1761.25
390.02	1648.61
390.23	1800.16
390.44	1638.38
390.66	1675.24
390.87	1605.61
391.08	1689.57
391.30	1794.02
391.51	1755.11
391.72	1675.24
391.94	1765.35
392.15	1642.47
392.36	1699.81
392.58	1671.14
392.79	1689.57
393.00	1703.91
393.22	1708.01
393.43	1728.49
393.64	1730.53
393.85	1769.44
394.07	1687.53
394.28	1677.29
394.49	1710.05
394.71	1785.83
394.92	1755.11
395.13	1640.42
395.35	1621.99
395.56	1609.70
395.77	1611.75
395.98	1667.05
396.20	1650.66
396.41	1679.33
396.62	1673.19
396.84	1665.00
397.05	1677.29
397.26	1658.85
397.47	1806.31
397.69	1583.08
397.90	1898.47
398.11	1742.82
398.32	1630.18
398.54	1689.57
398.75	1677.29
398.96	1597.42
399.18	1808.36
399.39	1673.19
399.60	1697.77
399.81	1650.66
400.03	1587.18
400.24	1902.56
400.45	1779.68
400.66	1708.01
400.88	1638.38
401.09	1806.31
401.30	1679.33
401.51	1789.92
401.73	1824.74
401.94	1740.77
402.15	1724.39
402.36	1740.77
402.58	1695.72
402.79	1773.54
403.00	1753.06
403.21	1804.26
403.43	1699.81
403.64	1763.30
403.85	1726.44
404.06	1771.49
404.27	1576.94
404.49	1642.47
404.70	1656.81
404.91	1808.36
405.12	1658.85
405.34	1802.21
405.55	1751.01
405.76	1630.18
405.97	1642.47
406.19	1757.16
406.40	1595.37
406.61	1757.16
406.82	1638.38
407.03	1705.96
407.25	1609.70
407.46	1822.69
407.67	1722.34
407.88	1769.44
408.09	1658.85
408.31	1669.09
408.52	1740.77
408.73	1667.05
408.94	1658.85
409.15	1753.06
409.37	1744.87
409.58	1753.06
409.79	1742.82
410.00	1839.08
410.21	1722.34
410.43	1652.71
410.64	1685.48
410.85	1740.77
411.06	1710.05
411.27	1658.85
411.48	1791.97
411.70	1660.90
411.91	1667.05
412.12	1791.97
412.33	1757.16
412.54	1697.77
412.76	1714.15
412.97	1828.84
413.18	1675.24
413.39	1662.95
413.60	1769.44
413.81	1769.44
414.03	1667.05
414.24	1697.77
414.45	1746.92
414.66	1583.08
414.87	1687.53
415.08	1714.15
415.30	1720.29
415.51	1742.82
415.72	1748.97
415.93	1705.96
416.14	1697.77
416.35	1765.35
416.56	1691.62
416.78	1757.16
416.99	1703.91
417.20	1726.44
417.41	1736.68
417.62	1654.76
417.83	1669.09
418.04	1679.33
418.26	1677.29
418.47	1728.49
418.68	1732.58
418.89	1789.92
419.10	1886.18
419.31	1755.11
419.52	1691.62
419.73	1708.01
419.95	1791.97
420.16	1665.00
420.37	1656.81
420.58	1769.44
420.79	1597.42
421.00	1648.61
421.21	1695.72
421.42	1642.47
421.63	1685.48
421.85	1654.76
422.06	1640.42
422.27	1660.90
422.48	1636.33
422.69	1662.95
422.90	1609.70
423.11	1574.89
423.32	1757.16
423.53	1804.26
423.75	1646.57
423.96	1738.73
424.17	1701.86
424.38	1746.92
424.59	1665.00
424.80	1630.18
425.01	1650.66
425.22	1552.36
425.43	1742.82
425.64	1798.12
425.85	1806.31
426.06	1783.78
426.28	1654.76
426.49	1609.70
426.70	1585.13
426.91	1687.53
427.12	1742.82
427.33	1679.33
427.54	1656.81
427.75	1632.23
427.96	1734.63
428.17	1714.15
428.38	1697.77
428.59	1703.91
428.80	1701.86
429.01	1650.66
429.23	1656.81
429.44	1597.42
429.65	1669.09
429.86	1765.35
430.07	1687.53
430.28	1689.57
430.49	1718.25
430.70	1738.73
430.91	1802.21
431.12	1705.96
431.33	1734.63
431.54	1773.54
431.75	1699.81
431.96	1763.30
432.17	1693.67
432.38	1785.83
432.59	1781.73
432.80	1746.92
433.01	1648.61
433.22	1636.33
433.43	1624.04
433.64	1703.91
433.85	1765.35
434.06	1691.62
434.27	1665.00
434.49	1665.00
434.70	1771.49
434.91	1771.49
435.12	1685.48
435.33	1660.90
435.54	1652.71
435.75	1628.14
435.96	1710.05
436.17	1720.29
436.38	1765.35
436.59	1722.34
436.80	1609.70
437.01	1736.68
437.22	1716.20
437.43	1648.61
437.64	1621.99
437.85	1771.49
438.06	1714.15
438.27	1708.01
438.48	1691.62
438.69	1697.77
438.90	1624.04
439.11	1656.81
439.32	1722.34
439.53	1619.94
439.74	1689.57
439.95	1632.23
440.16	1662.95
440.37	1667.05
440.57	1550.31
440.78	1757.16
440.99	1683.43
441.20	1673.19
441.41	1636.33
441.62	1638.38
441.83	1683.43
442.04	1585.13
442.25	1642.47
442.46	1550.31
442.67	1626.09
442.88	1863.65
443.09	1679.33
443.30	1609.70
443.51	1716.20
443.72	1695.72
443.93	1624.04
444.14	1734.63
444.35	1603.56
444.56	1681.38
444.77	1634.28
444.98	1693.67
445.19	1697.77
445.40	1714.15
445.61	1621.99
445.81	1654.76
446.02	1820.64
446.23	1757.16
446.44	1648.61
446.65	1628.14
446.86	1775.59
447.07	1753.06
447.28	1689.57
447.49	1746.92
447.70	1675.24
447.91	1726.44
448.12	1673.19
448.33	1779.68
448.54	1669.09
448.74	1642.47
448.95	1646.57
449.16	1667.05
449.37	1699.81
449.58	1722.34
449.79	1724.39
450.00	1693.67
450.21	1634.28
450.42	1722.34
450.63	1677.29
450.84	1644.52
451.05	1771.49
451.25	1609.70
451.46	1624.04
451.67	1787.88
451.88	1779.68
452.09	1642.47
452.30	1716.20
452.51	1562.60
452.72	1673.19
452.93	1824.74
453.13	1652.71
453.34	1681.38
453.55	1705.96
453.76	1722.34
453.97	1638.38
454.18	1617.90
454.39	1646.57
454.60	1736.68
454.81	1773.54
455.01	1734.63
455.22	1675.24
455.43	1626.09
455.64	1675.24
455.85	1705.96
456.06	1755.11
456.27	1806.31
456.48	1705.96
456.68	1687.53
456.89	1779.68
457.10	1644.52
457.31	1689.57
457.52	1730.53
457.73	1636.33
457.94	1720.29
458.14	1566.70
458.35	1724.39
458.56	1691.62
458.77	1677.29
458.98	1675.24
459.19	1705.96
459.39	1746.92
459.60	1748.97
459.81	1599.46
460.02	1644.52
460.23	1642.47
460.44	1593.32
460.65	1650.66
460.85	1681.38
461.06	1581.03
461.27	1759.21
461.48	1626.09
461.69	1630.18
461.89	1585.13
462.10	1619.94
462.31	1621.99
462.52	1650.66
462.73	1658.85
462.94	1771.49
463.14	1656.81
463.35	1646.57
463.56	1781.73
463.77	1798.12
463.98	1624.04
464.18	1730.53
464.39	1720.29
464.60	1708.01
464.81	1538.02
465.02	1761.25
465.23	1699.81
465.43	1615.85
465.64	1677.29
465.85	1621.99
466.06	1753.06
466.27	1669.09
466.47	1630.18
466.68	1822.69
466.89	1697.77
467.10	1597.42
467.30	1710.05
467.51	1652.71
467.72	1755.11
467.93	1564.65
468.14	1609.70
468.34	1708.01
468.55	1687.53
468.76	1787.88
468.97	1763.30
469.17	1710.05
469.38	1791.97
469.59	1736.68
469.80	1740.77
470.01	1658.85
470.21	1634.28
470.42	1652.71
470.63	1724.39
470.84	1722.34
471.04	1634.28
471.25	1888.23
471.46	1669.09
471.67	1740.77
471.87	1679.33
472.08	1781.73
472.29	1568.74
472.50	1718.25
472.70	1671.14
472.91	1603.56
473.12	1648.61
473.33	1646.57
473.53	1720.29
473.74	1583.08
473.95	1699.81
474.16	1656.81
474.36	1646.57
474.57	1744.87
474.78	1669.09
474.99	1847.27
475.19	1646.57
475.40	1714.15
475.61	1800.16
475.81	1636.33
476.02	1665.00
476.23	1675.24
476.44	1691.62
476.64	1640.42
476.85	1667.05
477.06	1687.53
477.27	1531.88
477.47	1798.12
477.68	1693.67
477.89	1634.28
478.09	1740.77
478.30	1658.85
478.51	1689.57
478.71	1640.42
478.92	1658.85
479.13	1734.63
479.34	1658.85
479.54	1685.48
479.75	1650.66
479.96	1675.24
480.16	1726.44
480.37	1656.81
480.58	1642.47
480.78	1816.55
480.99	1650.66
481.20	1691.62
481.41	1738.73
481.61	1691.62
481.82	1722.34
482.03	1712.10
482.23	1695.72
482.44	1691.62
482.65	1814.50
482.85	1808.36
483.06	1685.48
483.27	1712.10
483.47	1710.05
483.68	1687.53
483.89	1761.25
484.09	1689.57
484.30	1705.96
484.51	1716.20
484.71	1703.91
484.92	1654.76
485.13	1703.91
485.33	1718.25
485.54	1681.38
485.75	1691.62
485.95	1734.63
486.16	1667.05
486.37	1703.91
486.57	1671.14
486.78	1687.53
486.98	1718.25
487.19	1650.66
487.40	1714.15
487.60	1699.81
487.81	1634.28
488.02	1599.46
488.22	1677.29
488.43	1728.49
488.64	1607.66
488.84	1638.38
489.05	1683.43
489.25	1753.06
489.46	1748.97
489.67	1630.18
489.87	1693.67
490.08	1708.01
490.29	1615.85
490.49	1765.35
490.70	1716.20
490.90	1683.43
491.11	1699.81
491.32	1646.57
491.52	1691.62
491.73	1667.05
491.94	1628.14
492.14	1654.76
492.35	1728.49
492.55	1789.92
492.76	1613.80
492.97	1671.14
493.17	1669.09
493.38	1708.01
493.58	1767.40
493.79	1685.48
494.00	1648.61
494.20	1572.84
494.41	1730.53
494.61	1720.29
494.82	1626.09
495.02	1654.76
495.23	1744.87
495.44	1648.61
495.64	1675.24
495.85	1683.43
496.05	1697.77
496.26	1789.92
496.47	1691.62
496.67	1744.87
496.88	1738.73
497.08	1642.47
497.29	1693.67
497.49	1734.63
497.70	1716.20
497.91	1675.24
498.11	1808.36
498.32	1738.73
498.52	1689.57
498.73	1732.58
498.93	1691.62
499.14	1765.35
499.34	1789.92
499.55	1734.63
499.76	1677.29
499.96	1705.96
500.17	1724.39
500.37	1683.43
500.58	1701.86
500.78	1689.57
500.99	1658.85
501.19	1722.34
501.40	1769.44
501.60	1683.43
501.81	1650.66
502.02	1785.83
502.22	1740.77
502.43	1728.49
502.63	1849.32
502.84	1759.21
503.04	1662.95
503.25	1697.77
503.45	1640.42
503.66	1621.99
503.86	1722.34
504.07	1759.21
504.27	1619.94
504.48	1693.67
504.68	1679.33
504.89	1826.79
505.09	1691.62
505.30	1708.01
505.50	1722.34
505.71	1705.96
505.91	1783.78
506.12	1716.20
506.32	1726.44
506.53	1607.66
506.73	1691.62
506.94	1628.14
507.14	1634.28
507.35	1679.33
507.55	1675.24
507.76	1687.53
507.96	1673.19
508.17	1740.77
508.37	1621.99
508.58	1744.87
508.78	1697.77
508.99	1798.12
509.19	1746.92
509.40	1656.81
509.60	1748.97
509.81	1767.40
510.01	1705.96
510.22	1650.66
510.42	1687.53
510.63	1748.97
510.83	1734.63
511.04	1675.24
511.24	1757.16
511.44	1693.67
511.65	1746.92
511.85	1632.23
512.06	1689.57
512.26	1724.39
512.47	1755.11
512.67	1667.05
512.88	1820.64
513.08	1509.35
513.29	1783.78
513.49	1642.47
513.69	1703.91
513.90	1705.96
514.10	1814.50
514.31	1767.40
514.51	1642.47
514.72	1755.11
514.92	1675.24
515.13	1626.09
515.33	1617.90
515.53	1628.14
515.74	1777.64
515.94	1744.87
516.15	1656.81
516.35	1597.42
516.56	1634.28
516.76	1640.42
516.96	1683.43
517.17	1681.38
517.37	1691.62
517.58	1585.13
517.78	1695.72
517.99	1718.25
518.19	1853.41
518.39	1814.50
518.60	1757.16
518.80	1644.52
519.01	1751.01
519.21	1681.38
519.41	1732.58
519.62	1667.05
519.82	1718.25
520.03	1662.95
520.23	1652.71
520.43	1652.71
520.64	1722.34
520.84	1826.79
521.05	1640.42
521.25	1753.06
521.45	1697.77
521.66	1660.90
521.86	1740.77
522.07	1671.14
522.27	1728.49
522.47	1619.94
522.68	1714.15
522.88	1689.57
523.08	1734.63
523.29	1595.37
523.49	1671.14
523.70	1607.66
523.90	1613.80
524.10	1720.29
524.31	1619.94
524.51	1542.12
524.71	1757.16
524.92	1662.95
525.12	1527.78
525.33	1693.67
525.53	1701.86
525.73	1761.25
525.94	1751.01
526.14	1589.22
526.34	1669.09
526.55	1644.52
526.75	1765.35
526.95	1832.93
527.16	1675.24
527.36	1656.81
527.56	1765.35
527.77	1621.99
527.97	1718.25
528.17	1804.26
528.38	1671.14
528.58	1755.11
528.78	1734.63
528.99	1624.04
529.19	1703.91
529.39	1652.71
529.60	1593.32
529.80	1660.90
530.00	1560.55
530.21	1746.92
530.41	1667.05
530.61	1748.97
530.82	1630.18
531.02	1699.81
531.22	1728.49
531.43	1675.24
531.63	1665.00
531.83	1646.57
532.04	1748.97
532.24	1693.67
532.44	1601.51
532.64	1820.64
532.85	1619.94
533.05	1662.95
533.25	1583.08
533.46	1757.16
533.66	1650.66
533.86	1671.14
534.07	1667.05
534.27	1667.05
534.47	1775.59
534.67	1679.33
534.88	1685.48
535.08	1730.53
535.28	1757.16
535.49	1724.39
535.69	1753.06
535.89	1726.44
536.09	1755.11
536.30	1636.33
536.50	1628.14
536.70	1753.06
536.91	1699.81
537.11	1748.97
537.31	1689.57
537.51	1685.48
537.72	1691.62
537.92	1708.01
538.12	1691.62
538.32	1687.53
538.53	1662.95
538.73	1689.57
538.93	1669.09
539.13	1667.05
539.34	1716.20
539.54	1677.29
539.74	1847.27
539.94	1718.25
540.15	1806.31
540.35	1683.43
540.55	1621.99
540.75	1550.31
540.96	1705.96
541.16	1689.57
541.36	1699.81
541.56	1728.49
541.77	1798.12
541.97	1824.74
542.17	1634.28
542.37	1818.60
542.58	1748.97
542.78	1748.97
542.98	1685.48
543.18	1703.91
543.38	1642.47
543.59	1658.85
543.79	1609.70
543.99	1634.28
544.19	1675.24
544.40	1724.39
544.60	1660.90
544.80	1669.09
545.00	1624.04
545.20	1822.69
545.41	1607.66
545.61	1648.61
545.81	1742.82
546.01	1667.05
546.21	1693.67
546.42	1716.20
546.62	1740.77
546.82	1677.29
547.02	1650.66
547.22	1671.14
547.43	1746.92
547.63	1705.96
547.83	1759.21
548.03	1607.66
548.23	1699.81
548.44	1748.97
548.64	1712.10
548.84	1697.77
549.04	1652.71
549.24	1849.32
549.45	1935.33
549.65	1656.81
549.85	1687.53
550.05	1695.72
550.25	1544.17
550.45	1753.06
550.66	1716.20
550.86	1665.00
551.06	1705.96
551.26	1595.37
551.46	1634.28
551.66	1755.11
551.87	1740.77
552.07	1765.35
552.27	1687.53
552.47	1761.25
552.67	1689.57
552.87	1669.09
553.07	1677.29
553.28	1789.92
553.48	1701.86
553.68	1621.99
553.88	1665.00
554.08	1761.25
554.28	1648.61
554.48	1665.00
554.69	1652.71
554.89	1640.42
555.09	1611.75
555.29	1630.18
555.49	1744.87
555.69	1667.05
555.89	1638.38
556.10	1720.29
556.30	1615.85
556.50	1724.39
556.70	1767.40
556.90	1689.57
557.10	1695.72
557.30	1726.44
557.50	1644.52
557.70	1640.42
557.91	1675.24
558.11	1683.43
558.31	1787.88
558.51	1642.47
558.71	1761.25
558.91	1591.27
559.11	1607.66
559.31	1632.23
559.51	1642.47
559.72	1716.20
559.92	1607.66
560.12	1650.66
560.32	1789.92
560.52	1755.11
560.72	1673.19
560.92	1720.29
561.12	1761.25
561.32	1679.33
561.52	1621.99
561.72	1865.70
561.93	1755.11
562.13	1628.14
562.33	1605.61
562.53	1673.19
562.73	1607.66
562.93	1703.91
563.13	1771.49
563.33	1818.60
563.53	1730.53
563.73	1724.39
563.93	1714.15
564.13	1779.68
564.33	1701.86
564.53	1732.58
564.74	1648.61
564.94	1679.33
565.14	1708.01
565.34	1673.19
565.54	1724.39
565.74	1714.15
565.94	1642.47
566.14	1695.72
566.34	1720.29
566.54	1748.97
566.74	1685.48
566.94	1708.01
567.14	1746.92
567.34	1699.81
567.54	1699.81
567.74	1755.11
567.94	1640.42
568.14	1634.28
568.34	1796.07
568.54	1642.47
568.74	1773.54
568.94	1699.81
569.14	1779.68
569.34	1697.77
569.54	1705.96
569.75	1695.72
569.95	1708.01
570.15	1800.16
570.35	1705.96
570.55	1716.20
570.75	1650.66
570.95	1689.57
571.15	1708.01
571.35	1703.91
571.55	1681.38
571.75	1685.48
571.95	1634.28
572.15	1662.95
572.35	1705.96
572.55	1712.10
572.75	1650.66
572.95	1634.28
573.15	1667.05
573.35	1722.34
573.55	1677.29
573.75	1613.80
573.95	1843.17
574.15	1650.66
574.35	1716.20
574.55	1699.81
574.75	1699.81
574.95	1720.29
575.15	1587.18
575.34	1689.57
575.54	1626.09
575.74	1675.24
575.94	1712.10
576.14	1728.49
576.34	1710.05
576.54	1675.24
576.74	1712.10
576.94	1548.26
577.14	1654.76
577.34	1855.46
577.54	1710.05
577.74	1591.27
577.94	1662.95
578.14	1638.38
578.34	1736.68
578.54	1611.75
578.74	1701.86
578.94	1742.82
579.14	1751.01
579.34	1611.75
579.54	1712.10
579.74	1658.85
579.94	1718.25
580.13	1685.48
580.33	1587.18
580.53	1658.85
580.73	1714.15
580.93	1759.21
581.13	1652.71
581.33	1650.66
581.53	1722.34
581.73	1695.72
581.93	1652.71
582.13	1744.87
582.33	1617.90
582.53	1605.61
582.73	1757.16
582.92	1667.05
583.12	1689.57
583.32	1638.38
583.52	1656.81
583.72	1798.12
583.92	1716.20
584.12	1728.49
584.32	1779.68
584.52	1601.51
584.72	1673.19
584.92	1679.33
585.11	1650.66
585.31	1808.36
585.51	1644.52
585.71	1724.39
585.91	1759.21
586.11	1728.49
586.31	1697.77
586.51	1699.81
586.71	1699.81
586.91	1695.72
587.10	1753.06
587.30	1722.34
587.50	1679.33
587.70	1695.72
587.90	1753.06
588.10	1599.46
588.30	1656.81
588.50	1646.57
588.69	1675.24
588.89	1796.07
589.09	1714.15
589.29	1736.68
589.49	1708.01
589.69	1626.09
589.89	1724.39
590.08	1701.86
590.28	1695.72
590.48	1705.96
590.68	1708.01
590.88	1624.04
591.08	1705.96
591.28	1744.87
591.47	1744.87
591.67	1574.89
591.87	1697.77
592.07	1726.44
592.27	1605.61
592.47	1640.42
592.67	1650.66
592.86	1642.47
593.06	1726.44
593.26	1732.58
593.46	1720.29
593.66	1601.51
593.86	1789.92
594.05	1742.82
594.25	1757.16
594.45	1615.85
594.65	1816.55
594.85	1767.40
595.05	1662.95
595.24	1654.76
595.44	1658.85
595.64	1626.09
595.84	1734.63
596.04	1662.95
596.23	1654.76
596.43	1683.43
596.63	1742.82
596.83	1712.10
597.03	1843.17
597.22	1712.10
597.42	1732.58
597.62	1697.77
597.82	1732.58
598.02	1753.06
598.21	1624.04
598.41	1765.35
598.61	1667.05
598.81	1660.90
599.01	1730.53
599.20	1679.33
599.40	1638.38
599.60	1773.54
599.80	1648.61
600.00	1765.35
600.19	1708.01
600.39	1648.61
600.59	1816.55
600.79	1804.26
600.98	1771.49
601.18	1689.57
601.38	1726.44
601.58	1671.14
601.78	1757.16
601.97	1775.59
602.17	1794.02
602.37	1679.33
602.57	1621.99
602.76	1685.48
602.96	1736.68
603.16	1634.28
603.36	1732.58
603.55	1656.81
603.75	1669.09
603.95	1794.02
604.15	1744.87
604.34	1654.76
604.54	1720.29
604.74	1744.87
604.94	1699.81
605.13	1652.71
605.33	1683.43
605.53	1667.05
605.73	1742.82
605.92	1697.77
606.12	1771.49
606.32	1716.20
606.52	1777.64
606.71	1658.85
606.91	1669.09
607.11	1683.43
607.30	1720.29
607.50	1730.53
607.70	1769.44
607.90	1630.18
608.09	1650.66
608.29	1689.57
608.49	1798.12
608.68	1662.95
608.88	1710.05
609.08	1640.42
609.28	1777.64
609.47	1689.57
609.67	1738.73
609.87	1761.25
610.06	1685.48
610.26	1691.62
610.46	1800.16
610.66	1685.48
610.85	1650.66
611.05	1763.30
611.25	1677.29
611.44	1671.14
611.64	1646.57
611.84	1673.19
612.03	1667.05
612.23	1691.62
612.43	1769.44
612.62	1746.92
612.82	1746.92
613.02	1763.30
613.21	1658.85
613.41	1751.01
613.61	1574.89
613.80	1699.81
614.00	1646.57
614.20	1720.29
614.39	1777.64
614.59	1710.05
614.79	1607.66
614.98	1712.10
615.18	1736.68
615.38	1703.91
615.57	1640.42
615.77	1843.17
615.97	1648.61
616.16	1621.99
616.36	1732.58
616.56	1771.49
616.75	1660.90
616.95	1665.00
617.15	1683.43
617.34	1724.39
617.54	1802.21
617.74	1822.69
617.93	1824.74
618.13	1738.73
618.32	1617.90
618.52	1726.44
618.72	1720.29
618.91	1757.16
619.11	1832.93
619.31	1689.57
619.50	1656.81
619.70	1681.38
619.90	1728.49
620.09	1699.81
620.29	1728.49
620.48	1742.82
620.68	1728.49
620.88	1728.49
621.07	1765.35
621.27	1791.97
621.46	1708.01
621.66	1718.25
621.86	1714.15
622.05	1601.51
622.25	1798.12
622.44	1730.53
622.64	1761.25
622.84	1665.00
623.03	1619.94
623.23	1650.66
623.42	1708.01
623.62	1757.16
623.82	1734.63
624.01	1687.53
624.21	1650.66
624.40	1798.12
624.60	1677.29
624.80	1734.63
624.99	1726.44
625.19	1656.81
625.38	1726.44
625.58	1708.01
625.77	1673.19
625.97	1689.57
626.17	1689.57
626.36	1673.19
626.56	1761.25
626.75	1621.99
626.95	1687.53
627.14	1753.06
627.34	1734.63
627.54	1734.63
627.73	1765.35
627.93	1669.09
628.12	1646.57
628.32	1636.33
628.51	1703.91
628.71	1681.38
628.90	1787.88
629.10	1644.52
629.30	1708.01
629.49	1765.35
629.69	1708.01
629.88	1621.99
630.08	1722.34
630.27	1818.60
630.47	1810.40
630.66	1691.62
630.86	1712.10
631.05	1570.79
631.25	1673.19
631.44	1730.53
631.64	1591.27
631.84	1691.62
632.03	1781.73
632.23	1720.29
632.42	1665.00
632.62	1665.00
632.81	1697.77
633.01	1724.39
633.20	1849.32
633.40	1773.54
633.59	1724.39
633.79	1718.25
633.98	1748.97
634.18	1765.35
634.37	1773.54
634.57	1732.58
634.76	1640.42
634.96	1761.25
635.15	1810.40
635.35	1740.77
635.54	1681.38
635.74	1744.87
635.93	1636.33
636.13	1740.77
636.32	1808.36
636.52	1712.10
636.71	1691.62
636.91	1691.62
637.10	1681.38
637.30	1689.57
637.49	1677.29
637.69	1757.16
637.88	1710.05
638.08	1613.80
638.27	1708.01
638.46	1646.57
638.66	1710.05
638.85	1646.57
639.05	1667.05
639.24	1822.69
639.44	1716.20
639.63	1730.53
639.83	1648.61
640.02	1761.25
640.22	1658.85
640.41	1683.43
640.61	1693.67
640.80	1642.47
640.99	1597.42
641.19	1769.44
641.38	1808.36
641.58	1679.33
641.77	1724.39
641.97	1640.42
642.16	1671.14
642.36	1734.63
642.55	1654.76
642.74	1781.73
642.94	1712.10
643.13	1689.57
643.33	1736.68
643.52	1701.86
643.72	1716.20
643.91	1658.85
644.10	1781.73
644.30	1669.09
644.49	1746.92
644.69	1726.44
644.88	1705.96
645.08	1712.10
645.27	1742.82
645.46	1658.85
645.66	1648.61
645.85	1722.34
646.05	1708.01
646.24	1585.13
646.43	1738.73
646.63	1642.47
646.82	1654.76
647.02	1691.62
647.21	1816.55
647.40	1687.53
647.60	1609.70
647.79	1724.39
647.99	1576.94
648.18	1710.05
648.37	1785.83
648.57	1724.39
648.76	1675.24
648.96	1685.48
649.15	1691.62
649.34	1785.83
649.54	1646.57
649.73	1671.14
649.92	1681.38
650.12	1640.42
650.31	1691.62
650.51	1877.99
650.70	1726.44
650.89	1667.05
651.09	1804.26
651.28	1677.29
651.47	1603.56
651.67	1800.16
651.86	1779.68
652.06	1691.62
652.25	1748.97
652.44	1621.99
652.64	1712.10
652.83	1703.91
653.02	1765.35
653.22	1796.07
653.41	1617.90
653.60	1656.81
653.80	1634.28
653.99	1726.44
654.18	1699.81
654.38	1611.75
654.57	1804.26
654.76	1660.90
654.96	1769.44
655.15	1681.38
655.34	1765.35
655.54	1642.47
655.73	1703.91
655.92	1626.09
656.12	1691.62
656.31	1816.55
656.50	1800.16
656.70	1712.10
656.89	1617.90
657.08	1583.08
657.28	1783.78
657.47	1667.05
657.66	1662.95
657.86	1697.77
658.05	1705.96
658.24	1689.57
658.43	1738.73
658.63	1654.76
658.82	1728.49
659.01	1740.77
659.21	1800.16
659.40	1722.34
659.59	1775.59
659.79	1714.15
659.98	1736.68
660.17	1724.39
660.36	1660.90
660.56	1746.92
660.75	1748.97
660.94	1665.00
661.14	1728.49
661.33	1632.23
661.52	1693.67
661.71	1675.24
661.91	1779.68
662.10	1734.63
662.29	1681.38
662.49	1599.46
662.68	1589.22
662.87	1628.14
663.06	1779.68
663.26	1601.51
663.45	1832.93
663.64	1636.33
663.83	1689.57
664.03	1746.92
664.22	1744.87
664.41	1744.87
664.60	1783.78
664.80	1667.05
664.99	1755.11
665.18	1785.83
665.37	1714.15
665.57	1804.26
665.76	1658.85
665.95	1732.58
666.14	1673.19
666.34	1650.66
666.53	1712.10
666.72	1636.33
666.91	1714.15
667.11	1746.92
667.30	1798.12
667.49	1683.43
667.68	1810.40
667.87	1656.81
668.07	1736.68
668.26	1617.90
668.45	1628.14
668.64	1673.19
668.84	1767.40
669.03	1667.05
669.22	1712.10
669.41	1744.87
669.60	1638.38
669.80	1712.10
669.99	1748.97
670.18	1640.42
670.37	1785.83
670.57	1808.36
670.76	1601.51
670.95	1767.40
671.14	1626.09
671.33	1632.23
671.53	1732.58
671.72	1732.58
671.91	1775.59
672.10	1642.47
672.29	1640.42
672.48	1667.05
672.68	1662.95
672.87	1587.18
673.06	1724.39
673.25	1652.71
673.44	1724.39
673.64	1677.29
673.83	1699.81
674.02	1667.05
674.21	1746.92
674.40	1705.96
674.59	1703.91
674.79	1648.61
674.98	1724.39
675.17	1794.02
675.36	1615.85
675.55	1675.24
675.74	1654.76
675.94	1871.84
676.13	1667.05
676.32	1726.44
676.51	1662.95
676.70	1611.75
676.89	1630.18
677.08	1599.46
677.28	1787.88
677.47	1673.19
677.66	1751.01
677.85	1583.08
678.04	1679.33
678.23	1714.15
678.42	1640.42
678.62	1710.05
678.81	1630.18
679.00	1642.47
679.19	1859.56
679.38	1808.36
679.57	1632.23
679.76	1638.38
679.96	1667.05
680.15	1736.68
680.34	1613.80
680.53	1724.39
680.72	1748.97
680.91	1693.67
681.10	1710.05
681.29	1753.06
681.48	1753.06
681.68	1689.57
681.87	1744.87
682.06	1740.77
682.25	1830.88
682.44	1708.01
682.63	1794.02
682.82	1572.84
683.01	1675.24
683.20	1658.85
683.39	1777.64
683.59	1611.75
683.78	1691.62
683.97	1648.61
684.16	1611.75
684.35	1730.53
684.54	1751.01
684.73	1675.24
684.92	1605.61
685.11	1781.73
685.30	1769.44
685.49	1660.90
685.69	1791.97
685.88	1626.09
686.07	1572.84
686.26	1679.33
686.45	1697.77
686.64	1687.53
686.83	1689.57
687.02	1699.81
687.21	1781.73
687.40	1722.34
687.59	1687.53
687.78	1755.11
687.97	1744.87
688.16	1720.29
688.35	1681.38
688.54	1691.62
688.74	1568.74
688.93	1767.40
689.12	1662.95
689.31	1855.46
689.50	1763.30
689.69	1662.95
689.88	1658.85
690.07	1685.48
690.26	1701.86
690.45	1689.57
690.64	1636.33
690.83	1652.71
691.02	1679.33
691.21	1695.72
691.40	1687.53
691.59	1681.38
691.78	1771.49
691.97	1675.24
692.16	1624.04
692.35	1652.71
692.54	1708.01
692.73	1589.22
692.92	1744.87
693.11	1744.87
693.30	1708.01
693.49	1632.23
693.68	1761.25
693.87	1738.73
694.06	1685.48
694.25	1585.13
694.44	1662.95
694.63	1644.52
694.82	1746.92
695.01	1634.28
695.20	1681.38
695.39	1718.25
695.58	1646.57
695.77	1562.60
695.96	1761.25
696.15	1695.72
696.34	1683.43
696.53	1646.57
696.72	1730.53
696.91	1658.85
697.10	1699.81
697.29	1658.85
697.48	1855.46
697.67	1724.39
697.86	1638.38
698.05	1613.80
698.24	1734.63
698.43	1658.85
698.62	1712.10
698.81	1611.75
699.00	1761.25
699.19	1742.82
699.38	1751.01
699.57	1708.01
699.76	1703.91
699.95	1636.33
700.14	1634.28
700.32	1693.67
700.51	1624.04
700.70	1699.81
700.89	1714.15
701.08	1722.34
701.27	1634.28
701.46	1757.16
701.65	1775.59
701.84	1632.23
702.03	1605.61
702.22	1726.44
702.41	1730.53
702.60	1777.64
702.79	1654.76
702.98	1648.61
703.17	1716.20
703.35	1626.09
703.54	1699.81
703.73	1757.16
703.92	1654.76
704.11	1675.24
704.30	1712.10
704.49	1689.57
704.68	1669.09
704.87	1650.66
705.06	1834.98
705.25	1624.04
705.43	1603.56
705.62	1613.80
705.81	1863.65
706.00	1728.49
706.19	1658.85
706.38	1644.52
706.57	1812.45
706.76	1621.99
706.95	1679.33
707.14	1679.33
707.32	1632.23
707.51	1662.95
707.70	1720.29
707.89	1609.70
708.08	1699.81
708.27	1728.49
708.46	1691.62
708.65	1624.04
708.84	1791.97
709.02	1699.81
709.21	1626.09
709.40	1701.86
709.59	1755.11
709.78	1726.44
709.97	1634.28
710.16	1703.91
710.34	1761.25
710.53	1773.54
710.72	1710.05
710.91	1705.96
711.10	1689.57
711.29	1587.18
711.48	1761.25
711.66	1763.30
711.85	1673.19
712.04	1679.33
712.23	1650.66
712.42	1802.21
712.61	1810.40
712.80	1597.42
712.98	1628.14
713.17	1658.85
713.36	1746.92
713.55	1730.53
713.74	1710.05
713.93	1726.44
714.11	1665.00
714.30	1619.94
714.49	1798.12
714.68	1705.96
714.87	1595.37
715.06	1828.84
715.24	1691.62
715.43	1728.49
715.62	1679.33
715.81	1685.48
716.00	1630.18
716.18	1656.81
716.37	1722.34
716.56	1665.00
716.75	1683.43
716.94	1642.47
717.12	1736.68
717.31	1720.29
717.50	1535.98
717.69	1638.38
717.88	1673.19
718.06	1691.62
718.25	1759.21
718.44	1675.24
718.63	1685.48
718.82	1568.74
719.00	1722.34
719.19	1820.64
719.38	1650.66
719.57	1708.01
719.76	1716.20
719.94	1679.33
720.13	1718.25
720.32	1759.21
720.51	1667.05
720.69	1695.72
720.88	1808.36
721.07	1615.85
721.26	1673.19
721.44	1683.43
721.63	1710.05
721.82	1697.77
722.01	1708.01
722.20	1742.82
722.38	1738.73
722.57	1681.38
722.76	1640.42
722.95	1634.28
723.13	1705.96
723.32	1757.16
723.51	1654.76
723.70	1744.87
723.88	1802.21
724.07	1591.27
724.26	1751.01
724.44	1660.90
724.63	1781.73
724.82	1654.76
725.01	1691.62
725.19	1601.51
725.38	1736.68
725.57	1544.17
725.76	1808.36
725.94	1673.19
726.13	1638.38
726.32	1681.38
726.51	1687.53
726.69	1548.26
726.88	1673.19
727.07	1681.38
727.25	1662.95
727.44	1634.28
727.63	1720.29
727.82	1681.38
728.00	1660.90
728.19	1632.23
728.38	1683.43
728.56	1568.74
728.75	1810.40
728.94	1693.67
729.12	1642.47
729.31	1675.24
729.50	1619.94
729.69	1761.25
729.87	1619.94
730.06	1636.33
730.25	1613.80
730.43	1785.83
730.62	1658.85
730.81	1636.33
730.99	1667.05
731.18	1710.05
731.37	1677.29
731.55	1697.77
731.74	1728.49
731.93	1712.10
732.11	1673.19
732.30	1648.61
732.49	1724.39
732.67	1648.61
732.86	1683.43
733.05	1568.74
733.23	1632.23
733.42	1585.13
733.61	1638.38
733.79	1728.49
733.98	1783.78
734.17	1615.85
734.35	1714.15
734.54	1748.97
734.73	1759.21
734.91	1570.79
735.10	1710.05
735.29	1732.58
735.47	1607.66
735.66	1621.99
735.84	1677.29
736.03	1667.05
736.22	1656.81
736.40	1693.67
736.59	1558.50
736.78	1662.95
736.96	1716.20
737.15	1667.05
737.33	1755.11
737.52	1617.90
737.71	1755.11
737.89	1708.01
738.08	1691.62
738.27	1728.49
738.45	1699.81
738.64	1658.85
738.82	1591.27
739.01	1654.76
739.20	1710.05
739.38	1748.97
739.57	1699.81
739.75	1710.05
739.94	1693.67
740.13	1587.18
740.31	1679.33
740.50	1730.53
740.68	1578.98
740.87	1611.75
741.06	1701.86
741.24	1724.39
741.43	1671.14
741.61	1626.09
741.80	1662.95
741.99	1673.19
742.17	1703.91
742.36	1611.75
742.54	1658.85
742.73	1742.82
742.91	1671.14
743.10	1660.90
743.29	1705.96
743.47	1730.53
743.66	1527.78
743.84	1681.38
744.03	1677.29
744.21	1640.42
744.40	1708.01
744.59	1646.57
744.77	1607.66
744.96	1751.01
745.14	1716.20
745.33	1667.05
745.51	1658.85
745.70	1673.19
745.88	1710.05
746.07	1658.85
746.26	1630.18
746.44	1675.24
746.63	1601.51
746.81	1695.72
747.00	1656.81
747.18	1726.44
747.37	1634.28
747.55	1751.01
747.74	1976.29
747.92	1662.95
748.11	1650.66
748.29	1646.57
748.48	1693.67
748.66	1695.72
748.85	1695.72
749.03	1710.05
749.22	1624.04
749.41	1636.33
749.59	1703.91
749.78	1646.57
749.96	1566.70
750.15	1593.32
750.33	1714.15
750.52	1570.79
750.70	1646.57
750.89	1712.10
751.07	1642.47
751.26	1759.21
751.44	1667.05
751.63	1681.38
751.81	1667.05
752.00	1644.52
752.18	1687.53
752.37	1687.53
752.55	1671.14
752.74	1605.61
752.92	1691.62
753.10	1617.90
753.29	1757.16
753.47	1701.86
753.66	1634.28
753.84	1671.14
754.03	1591.27
754.21	1685.48
754.40	1677.29
754.58	1751.01
754.77	1691.62
754.95	1718.25
755.14	1738.73
755.32	1703.91
755.51	1525.74
755.69	1619.94
755.88	1568.74
756.06	1691.62
756.24	1687.53
756.43	1703.91
756.61	1740.77
756.80	1533.93
756.98	1652.71
757.17	1646.57
757.35	1730.53
757.54	1722.34
757.72	1687.53
757.90	1617.90
758.09	1746.92
758.27	1660.90
758.46	1583.08
758.64	1732.58
758.83	1656.81
759.01	1767.40
759.19	1781.73
759.38	1701.86
759.56	1697.77
759.75	1632.23
759.93	1658.85
760.12	1589.22
760.30	1679.33
760.48	1656.81
760.67	1669.09
760.85	1630.18
761.04	1593.32
761.22	1650.66
761.40	1693.67
761.59	1662.95
761.77	1632.23
761.96	1605.61
762.14	1591.27
762.32	1681.38
762.51	1654.76
762.69	1636.33
762.88	1667.05
763.06	1644.52
763.24	1601.51
763.43	1603.56
763.61	1626.09
763.80	1581.03
763.98	1712.10
764.16	1480.68
764.35	1652.71
764.53	1665.00
764.72	1681.38
764.90	1714.15
765.08	1675.24
765.27	1736.68
765.45	1675.24
765.63	1611.75
765.82	1673.19
766.00	1695.72
766.18	1642.47
766.37	1669.09
766.55	1673.19
766.74	1759.21
766.92	1593.32
767.10	1615.85
767.29	1796.07
767.47	1675.24
767.65	1693.67
767.84	1638.38
768.02	1748.97
768.20	1705.96
768.39	1703.91
768.57	1617.90
768.75	1619.94
768.94	1734.63
769.12	1574.89
769.30	1652.71
769.49	1744.87
769.67	1642.47
769.85	1818.60
770.04	1624.04
770.22	1673.19
770.40	1662.95
770.59	1705.96
770.77	1738.73
770.95	1601.51
771.14	1693.67
771.32	1648.61
771.50	1587.18
771.69	1535.98
771.87	1628.14
772.05	1671.14
772.24	1585.13
772.42	1685.48
772.60	1667.05
772.78	1685.48
772.97	1525.74
773.15	1705.96
773.33	1662.95
773.52	1617.90
773.70	1660.90
773.88	1683.43
774.07	1570.79
774.25	1599.46
774.43	1757.16
774.61	1742.82
774.80	1634.28
774.98	1673.19
775.16	1652.71
775.34	1697.77
775.53	1708.01
775.71	1728.49
775.89	1708.01
776.08	1599.46
776.26	1624.04
776.44	1675.24
776.62	1675.24
776.81	1687.53
776.99	1738.73
777.17	1736.68
777.35	1697.77
777.54	1576.94
777.72	1679.33
777.90	1662.95
778.08	1665.00
778.27	1658.85
778.45	1630.18
778.63	1728.49
778.81	1755.11
779.00	1712.10
779.18	1714.15
779.36	1763.30
779.54	1687.53
779.73	1720.29
779.91	1626.09
780.09	1695.72
780.27	1658.85
780.46	1650.66
780.64	1591.27
780.82	1626.09
781.00	1558.50
781.19	1597.42
781.37	1644.52
781.55	1624.04
781.73	1667.05
781.91	1673.19
782.10	1632.23
782.28	1636.33
782.46	1634.28
782.64	1718.25
782.82	1667.05
783.01	1597.42
783.19	1710.05
783.37	1683.43
783.55	1640.42
783.74	1667.05
783.92	1654.76
784.10	1677.29
784.28	1630.18
784.46	1673.19
784.64	1601.51
784.83	1638.38
785.01	1757.16
785.19	1724.39
785.37	1740.77
785.55	1667.05
785.74	1724.39
785.92	1677.29
786.10	1607.66
786.28	1748.97
786.46	1679.33
786.64	1617.90
786.83	1658.85
787.01	1708.01
787.19	1714.15
787.37	1693.67
787.55	1642.47
787.74	1587.18
787.92	1689.57
788.10	1740.77
788.28	1640.42
788.46	1701.86
788.64	1699.81
788.82	1708.01
789.01	1611.75
789.19	1660.90
789.37	1736.68
789.55	1671.14
789.73	1538.02
789.91	1624.04
790.09	1683.43
790.28	1628.14
790.46	1591.27
790.64	1648.61
790.82	1585.13
791.00	1621.99
791.18	1609.70
791.36	1675.24
791.55	1654.76
791.73	1677.29
791.91	1605.61
792.09	1697.77
792.27	1576.94
792.45	1740.77
792.63	1798.12
792.81	1697.77
793.00	1685.48
793.18	1691.62
793.36	1800.16
793.54	1716.20
793.72	1650.66
793.90	1671.14
794.08	1503.21
794.26	1705.96
794.44	1576.94
794.62	1634.28
794.81	1621.99
794.99	1658.85
795.17	1757.16
795.35	1615.85
795.53	1656.81
795.71	1716.20
795.89	1636.33
796.07	1613.80
796.25	1660.90
796.43	1681.38
796.61	1634.28
796.80	1597.42
796.98	1656.81
797.16	1636.33
797.34	1587.18
797.52	1603.56
797.70	1726.44
797.88	1646.57
798.06	1626.09
798.24	1679.33
798.42	1642.47
798.60	1656.81
798.78	1654.76
798.96	1689.57
799.14	1632.23
799.32	1771.49
799.51	1550.31
799.69	1710.05
799.87	1765.35
800.05	1660.90
800.23	1628.14
800.41	1675.24
800.59	1671.14
800.77	1646.57
800.95	1535.98
801.13	1716.20
801.31	1654.76
801.49	1685.48
801.67	1587.18
801.85	1650.66
802.03	1724.39
802.21	1589.22
802.39	1552.36
802.57	1644.52
802.75	1677.29
802.93	1785.83
803.11	1578.98
803.29	1703.91
803.47	1671.14
803.65	1599.46
803.83	1658.85
804.01	1640.42
804.19	1662.95
804.37	1652.71
804.55	1703.91
804.73	1703.91
804.91	1597.42
805.09	1671.14
805.27	1624.04
805.45	1656.81
805.63	1675.24
805.81	1728.49
805.99	1640.42
806.17	1650.66
806.35	1650.66
806.53	1720.29
806.71	1697.77
806.89	1597.42
807.07	1705.96
807.25	1748.97
807.43	1601.51
807.61	1724.39
807.79	1648.61
807.97	1689.57
808.15	1630.18
808.33	1646.57
808.51	1771.49
808.69	1658.85
808.87	1597.42
809.05	1544.17
809.23	1589.22
809.41	1603.56
809.59	1609.70
809.77	1734.63
809.95	1634.28
810.13	1732.58
810.31	1728.49
810.49	1746.92
810.67	1640.42
810.84	1621.99
811.02	1714.15
811.20	1669.09
811.38	1716.20
811.56	1509.35
811.74	1654.76
811.92	1660.90
812.10	1681.38
812.28	1654.76
812.46	1693.67
812.64	1665.00
812.82	1574.89
813.00	1589.22
813.18	1644.52
813.36	1708.01
813.53	1660.90
813.71	1720.29
813.89	1714.15
814.07	1593.32
814.25	1644.52
814.43	1564.65
814.61	1550.31
814.79	1669.09
814.97	1669.09
815.15	1775.59
815.33	1591.27
815.50	1617.90
815.68	1578.98
815.86	1673.19
816.04	1583.08
816.22	1699.81
816.40	1705.96
816.58	1630.18
816.76	1621.99
816.94	1705.96
817.11	1617.90
817.29	1640.42
817.47	1628.14
817.65	1613.80
817.83	1675.24
818.01	1595.37
818.19	1585.13
818.37	1695.72
818.54	1730.53
818.72	1734.63
818.90	1695.72
819.08	1667.05
819.26	1597.42
819.44	1732.58
819.62	1617.90
819.80	1591.27
819.97	1728.49
820.15	1654.76
820.33	1652.71
820.51	1535.98
820.69	1689.57
820.87	1591.27
821.05	1710.05
821.22	1568.74
821.40	1607.66
821.58	1662.95
821.76	1607.66
821.94	1634.28
822.12	1648.61
822.29	1615.85
822.47	1648.61
822.65	1658.85
822.83	1597.42
823.01	1650.66
823.19	1601.51
823.36	1597.42
823.54	1529.83
823.72	1607.66
823.90	1685.48
824.08	1554.41
824.25	1652.71
824.43	1630.18
824.61	1605.61
824.79	1603.56
824.97	1628.14
825.15	1703.91
825.32	1632.23
825.50	1699.81
825.68	1656.81
825.86	1638.38
826.04	1624.04
826.21	1714.15
826.39	1619.94
826.57	1681.38
826.75	1701.86
826.93	1701.86
827.10	1738.73
827.28	1585.13
827.46	1591.27
827.64	1648.61
827.81	1648.61
827.99	1630.18
828.17	1710.05
828.35	1646.57
828.53	1667.05
828.70	1705.96
828.88	1671.14
829.06	1619.94
829.24	1646.57
829.41	1630.18
829.59	1646.57
829.77	1722.34
829.95	1662.95
830.12	1611.75
830.30	1660.90
830.48	1658.85
830.66	1619.94
830.84	1548.26
831.01	1689.57
831.19	1597.42
831.37	1697.77
831.55	1652.71
831.72	1755.11
831.90	1685.48
832.08	1632.23
832.25	1691.62
832.43	1681.38
832.61	1720.29
832.79	1591.27
832.96	1679.33
833.14	1685.48
833.32	1751.01
833.50	1626.09
833.67	1683.43
833.85	1544.17
834.03	1613.80
834.20	1652.71
834.38	1789.92
834.56	1607.66
834.74	1605.61
834.91	1648.61
835.09	1675.24
835.27	1652.71
835.44	1683.43
835.62	1544.17
835.80	1615.85
835.98	1624.04
836.15	1695.72
836.33	1677.29
836.51	1519.59
836.68	1628.14
836.86	1628.14
837.04	1650.66
837.21	1722.34
837.39	1708.01
837.57	1740.77
837.75	1642.47
837.92	1605.61
838.10	1558.50
838.28	1562.60
838.45	1689.57
838.63	1595.37
838.81	1724.39
838.98	1624.04
839.16	1650.66
839.34	1691.62
839.51	1703.91
839.69	1570.79
839.87	1644.52
840.04	1705.96
840.22	1953.76
840.40	1660.90
840.57	1621.99
840.75	1636.33
840.93	1640.42
841.10	1656.81
841.28	1654.76
841.46	1671.14
841.63	1697.77
841.81	1597.42
841.98	1531.88
842.16	1685.48
842.34	1611.75
842.51	1556.46
842.69	1609.70
842.87	1593.32
843.04	1671.14
843.22	1619.94
843.40	1542.12
843.57	1548.26
843.75	1675.24
843.92	1626.09
844.10	1679.33
844.28	1744.87
844.45	1624.04
844.63	1689.57
844.81	1675.24
844.98	1785.83
845.16	1687.53
845.33	1728.49
845.51	1699.81
845.69	1673.19
845.86	1695.72
846.04	1640.42
846.21	1578.98
846.39	1578.98
846.57	1595.37
846.74	1585.13
846.92	1708.01
847.09	1652.71
847.27	1624.04
847.45	1656.81
847.62	1644.52
847.80	1638.38
847.97	1710.05
848.15	1554.41
848.32	1644.52
848.50	1667.05
848.68	1540.07
848.85	1691.62
849.03	1503.21
849.20	1658.85
849.38	1609.70
849.56	1572.84
849.73	1619.94
849.91	1673.19
850.08	1665.00
850.26	1540.07
850.43	1560.55
850.61	1675.24
850.78	1544.17
850.96	1710.05
851.14	1597.42
851.31	1828.84
851.49	1624.04
851.66	1710.05
851.84	1554.41
852.01	1714.15
852.19	1558.50
852.36	1656.81
852.54	1705.96
852.71	1630.18
852.89	1630.18
853.07	1628.14
853.24	1638.38
853.42	1644.52
853.59	1621.99
853.77	1624.04
853.94	1746.92
854.12	1755.11
854.29	1583.08
854.47	1636.33
854.64	1652.71
854.82	1619.94
854.99	1720.29
855.17	1617.90
855.34	1597.42
855.52	1652.71
855.69	1791.97
855.87	1626.09
856.04	1687.53
856.22	1744.87
856.39	1558.50
856.57	1732.58
856.74	1613.80
856.92	1718.25
857.09	1646.57
857.27	1576.94
857.44	1687.53
857.62	1781.73
857.79	1681.38
857.97	1677.29
858.14	1605.61
858.32	1609.70
858.49	1636.33
858.67	1681.38
858.84	1646.57
859.02	1656.81
859.19	1665.00
859.37	1533.93
859.54	1535.98
859.72	1642.47
859.89	1650.66
860.06	1544.17
860.24	1621.99
860.41	1675.24
860.59	1560.55
860.76	1705.96
860.94	1554.41
861.11	1722.34
861.29	1628.14
861.46	1681.38
861.64	1597.42
861.81	1705.96
861.98	1568.74
862.16	1679.33
862.33	1624.04
862.51	1660.90
862.68	1630.18
862.86	1576.94
863.03	1591.27
863.21	1597.42
863.38	1650.66
863.55	1624.04
863.73	1673.19
863.90	1675.24
864.08	1636.33
864.25	1671.14
864.43	1665.00
864.60	1615.85
864.77	1675.24
864.95	1601.51
865.12	1566.70
865.30	1683.43
865.47	1718.25
865.64	1652.71
865.82	1617.90
865.99	1624.04
866.17	1714.15
866.34	1665.00
866.51	1542.12
866.69	1576.94
866.86	1710.05
867.04	1671.14
867.21	1681.38
867.38	1605.61
867.56	1583.08
867.73	1665.00
867.91	1595.37
868.08	1630.18
868.25	1636.33
868.43	1566.70
868.60	1660.90
868.78	1609.70
868.95	1640.42
869.12	1650.66
869.30	1595.37
869.47	1677.29
869.64	1722.34
869.82	1615.85
869.99	1599.46
870.16	1742.82
870.34	1771.49
870.51	1746.92
870.69	1468.39
870.86	1677.29
871.03	1644.52
871.21	1630.18
871.38	1763.30
871.55	1660.90
871.73	1593.32
871.90	1613.80
872.07	1624.04
872.25	1515.50
872.42	1558.50
872.59	1548.26
872.77	1619.94
872.94	1619.94
873.11	1589.22
873.29	1708.01
873.46	1619.94
873.63	1658.85
873.81	1708.01
873.98	1687.53
874.15	1566.70
874.33	1669.09
874.50	1634.28
874.67	1634.28
874.85	1544.17
875.02	1652.71
875.19	1603.56
875.37	1581.03
875.54	1531.88
875.71	1619.94
875.88	1724.39
876.06	1646.57
876.23	1660.90
876.40	1660.90
876.58	1624.04
876.75	1755.11
876.92	1560.55
877.10	1673.19
877.27	1669.09
877.44	1589.22
877.61	1642.47
877.79	1642.47
877.96	1716.20
878.13	1716.20
878.31	1583.08
878.48	1630.18
878.65	1708.01
878.82	1572.84
879.00	1613.80
879.17	1708.01
879.34	1599.46
879.51	1550.31
879.69	1632.23
879.86	1566.70
880.03	1624.04
880.21	1671.14
880.38	1601.51
880.55	1738.73
880.72	1773.54
880.90	1681.38
881.07	1601.51
881.24	1726.44
881.41	1617.90
881.59	1662.95
881.76	1626.09
881.93	1697.77
882.10	1685.48
882.28	1652.71
882.45	1738.73
882.62	1775.59
882.79	1683.43
882.96	1574.89
883.14	1628.14
883.31	1669.09
883.48	1540.07
883.65	1650.66
883.83	1617.90
884.00	1650.66
884.17	1710.05
884.34	1589.22
884.51	1671.14
884.69	1640.42
884.86	1724.39
885.03	1667.05
885.20	1529.83
885.38	1718.25
885.55	1634.28
885.72	1697.77
885.89	1519.59
886.06	1681.38
886.24	1642.47
886.41	1599.46
886.58	1624.04
886.75	1679.33
886.92	1642.47
887.10	1628.14
887.27	1673.19
887.44	1761.25
887.61	1757.16
887.78	1734.63
887.95	1667.05
888.13	1648.61
888.30	1605.61
888.47	1615.85
888.64	1650.66
888.81	1673.19
888.99	1650.66
889.16	1681.38
889.33	1609.70
889.50	1621.99
889.67	1595.37
889.84	1617.90
890.01	1681.38
890.19	1626.09
890.36	1626.09
890.53	1665.00
890.70	1624.04
890.87	1677.29
891.04	1621.99
891.22	1646.57
891.39	1593.32
891.56	1683.43
891.73	1703.91
891.90	1597.42
892.07	1556.46
892.24	1628.14
892.42	1574.89
892.59	1564.65
892.76	1693.67
892.93	1558.50
893.10	1556.46
893.27	1605.61
893.44	1527.78
893.61	1587.18
893.79	1683.43
893.96	1650.66
894.13	1605.61
894.30	1626.09
894.47	1689.57
894.64	1697.77
894.81	1593.32
894.98	1572.84
895.15	1630.18
895.33	1724.39
895.50	1576.94
895.67	1628.14
895.84	1667.05
896.01	1689.57
896.18	1511.40
896.35	1740.77
896.52	1544.17
896.69	1648.61
896.86	1695.72
897.04	1728.49
897.21	1597.42
897.38	1636.33
897.55	1636.33
897.72	1648.61
897.89	1644.52
898.06	1732.58
898.23	1568.74
898.40	1679.33
898.57	1638.38
898.74	1632.23
898.91	1548.26
899.08	1601.51
899.26	1658.85
899.43	1683.43
899.60	1576.94
899.77	1652.71
899.94	1634.28
900.11	1624.04
900.28	1546.22
900.45	1621.99
900.62	1552.36
900.79	1617.90
900.96	1703.91
901.13	1679.33
901.30	1576.94
901.47	1552.36
901.64	1601.51
901.81	1763.30
901.98	1626.09
902.15	1662.95
902.32	1599.46
902.49	1568.74
902.66	1732.58
902.83	1621.99
903.01	1591.27
903.18	1624.04
903.35	1634.28
903.52	1636.33
903.69	1609.70
903.86	1634.28
904.03	1693.67
904.20	1728.49
904.37	1708.01
904.54	1517.54
904.71	1662.95
904.88	1675.24
905.05	1611.75
905.22	1624.04
905.39	1509.35
905.56	1548.26
905.73	1544.17
905.90	1576.94
906.07	1574.89
906.24	1681.38
906.41	1638.38
906.58	1695.72
906.75	1585.13
906.92	1531.88
907.09	1652.71
907.26	1648.61
907.43	1544.17
907.60	1615.85
907.77	1712.10
907.93	1689.57
908.10	1560.55
908.27	1656.81
908.44	1630.18
908.61	1591.27
908.78	1640.42
908.95	1726.44
909.12	1640.42
909.29	1642.47
909.46	1628.14
909.63	1638.38
909.80	1630.18
909.97	1615.85
910.14	1683.43
910.31	1558.50
910.48	1587.18
910.65	1640.42
910.82	1595.37
910.99	1691.62
911.16	1658.85
911.33	1681.38
911.50	1626.09
911.66	1583.08
911.83	1732.58
912.00	1603.56
912.17	1519.59
912.34	1626.09
912.51	1599.46
912.68	1617.90
912.85	1621.99
913.02	1648.61
913.19	1564.65
913.36	1650.66
913.53	1640.42
913.70	1613.80
913.86	1685.48
914.03	1660.90
914.20	1662.95
914.37	1675.24
914.54	1669.09
914.71	1675.24
914.88	1687.53
915.05	1515.50
915.22	1613.80
915.39	1693.67
915.55	1646.57
915.72	1591.27
915.89	1533.93
916.06	1583.08
916.23	1634.28
916.40	1640.42
916.57	1535.98
916.74	1662.95
916.91	1671.14
917.07	1515.50
917.24	1589.22
917.41	1589.22
917.58	1687.53
917.75	1591.27
917.92	1572.84
918.09	1540.07
918.26	1548.26
918.42	1591.27
918.59	1671.14
918.76	1566.70
918.93	1589.22
919.10	1593.32
919.27	1638.38
919.44	1699.81
919.60	1624.04
919.77	1591.27
919.94	1658.85
920.11	1679.33
920.28	1658.85
920.45	1691.62
920.61	1531.88
920.78	1605.61
920.95	1748.97
921.12	1757.16
921.29	1591.27
921.46	1628.14
921.62	1591.27
921.79	1683.43
921.96	1626.09
922.13	1658.85
922.30	1691.62
922.47	1605.61
922.63	1585.13
922.80	1572.84
922.97	1617.90
923.14	1417.19
923.31	1593.32
923.47	1630.18
923.64	1726.44
923.81	1578.98
923.98	1691.62
924.15	1621.99
924.32	1695.72
924.48	1724.39
924.65	1671.14
924.82	1619.94
924.99	1658.85
925.15	1521.64
925.32	1650.66
925.49	1599.46
925.66	1695.72
925.83	1548.26
925.99	1556.46
926.16	1687.53
926.33	1646.57
926.50	1560.55
926.67	1613.80
926.83	1642.47
927.00	1720.29
927.17	1607.66
927.34	1572.84
927.50	1697.77
927.67	1851.36
927.84	1701.86
928.01	1689.57
928.17	1658.85
928.34	1589.22
928.51	1650.66
928.68	1638.38
928.84	1511.40
929.01	1603.56
929.18	1597.42
929.35	1617.90
929.51	1679.33
929.68	1642.47
929.85	1599.46
930.02	1609.70
930.18	1585.13
930.35	1662.95
930.52	1599.46
930.69	1646.57
930.85	1675.24
931.02	1609.70
931.19	1632.23
931.36	1650.66
931.52	1597.42
931.69	1642.47
931.86	1589.22
932.02	1599.46
932.19	1617.90
932.36	1626.09
932.53	1697.77
932.69	1613.80
932.86	1777.64
933.03	1611.75
933.19	1484.78
933.36	1658.85
933.53	1765.35
933.70	1687.53
933.86	1665.00
934.03	1652.71
934.20	1640.42
934.36	1703.91
934.53	1570.79
934.70	1626.09
934.86	1601.51
935.03	1576.94
935.20	1554.41
935.36	1708.01
935.53	1511.40
935.70	1576.94
935.86	1687.53
936.03	1521.64
936.20	1501.16
936.36	1638.38
936.53	1654.76
936.70	1601.51
936.86	1761.25
937.03	1634.28
937.20	1570.79
937.36	1734.63
937.53	1511.40
937.70	1613.80
937.86	1560.55
938.03	1638.38
938.20	1736.68
938.36	1562.60
938.53	1644.52
938.70	1517.54
938.86	1609.70
939.03	1636.33
939.20	1486.83
939.36	1648.61
939.53	1662.95
939.70	1814.50
939.86	1601.51
940.03	1574.89
940.19	1624.04
940.36	1648.61
940.53	1617.90
940.69	1712.10
940.86	1781.73
941.03	1626.09
941.19	1484.78
941.36	1662.95
941.52	1712.10
941.69	1617.90
941.86	1638.38
942.02	1632.23
942.19	1572.84
942.35	1683.43
942.52	1658.85
942.69	1617.90
942.85	1630.18
943.02	1583.08
943.18	1617.90
943.35	1585.13
943.52	1650.66
943.68	1550.31
943.85	1675.24
944.01	1683.43
944.18	1689.57
944.35	1699.81
944.51	1644.52
944.68	1568.74
944.84	1568.74
945.01	1581.03
945.17	1640.42
945.34	1703.91
945.51	1732.58
945.67	1732.58
945.84	1650.66
946.00	1542.12
946.17	1636.33
946.33	1572.84
946.50	1746.92
946.67	1660.90
946.83	1589.22
947.00	1728.49
947.16	1560.55
947.33	1533.93
947.49	1531.88
947.66	1535.98
947.82	1705.96
947.99	1597.42
948.16	1634.28
948.32	1595.37
948.49	1671.14
948.65	1699.81
948.82	1691.62
948.98	1613.80
949.15	1519.59
949.31	1675.24
949.48	1609.70
949.64	1648.61
949.81	1593.32
949.97	1572.84
950.14	1630.18
950.30	1519.59
950.47	1609.70
950.63	1675.24
950.80	1636.33
950.96	1613.80
951.13	1574.89
951.30	1591.27
951.46	1660.90
951.63	1646.57
951.79	1632.23
951.96	1665.00
952.12	1593.32
952.29	1665.00
952.45	1490.92
952.62	1564.65
952.78	1658.85
952.94	1697.77
953.11	1660.90
953.27	1540.07
953.44	1699.81
953.60	1601.51
953.77	1671.14
953.93	1617.90
954.10	1671.14
954.26	1597.42
954.43	1560.55
954.59	1665.00
954.76	1695.72
954.92	1652.71
955.09	1626.09
955.25	1570.79
955.42	1617.90
955.58	1634.28
955.75	1587.18
955.91	1587.18
956.07	1621.99
956.24	1585.13
956.40	1634.28
956.57	1660.90
956.73	1611.75
956.90	1601.51
957.06	1576.94
957.23	1572.84
957.39	1544.17
957.56	1642.47
957.72	1554.41
957.88	1548.26
958.05	1648.61
958.21	1697.77
958.38	1613.80
958.54	1644.52
958.71	1636.33
958.87	1624.04
959.03	1576.94
959.20	1677.29
959.36	1589.22
959.53	1568.74
959.69	1578.98
959.85	1638.38
960.02	1585.13
960.18	1572.84
960.35	1609.70
960.51	1648.61
960.68	1574.89
960.84	1572.84
961.00	1568.74
961.17	1589.22
961.33	1669.09
961.50	1533.93
961.66	1671.14
961.82	1540.07
961.99	1560.55
962.15	1601.51
962.31	1595.37
962.48	1613.80
962.64	1652.71
962.81	1562.60
962.97	1560.55
963.13	1613.80
963.30	1574.89
963.46	1568.74
963.62	1556.46
963.79	1613.80
963.95	1638.38
964.12	1628.14
964.28	1677.29
964.44	1564.65
964.61	1646.57
964.77	1597.42
964.93	1726.44
965.10	1640.42
965.26	1603.56
965.42	1615.85
965.59	1617.90
965.75	1562.60
965.92	1640.42
966.08	1660.90
966.24	1638.38
966.41	1599.46
966.57	1662.95
966.73	1652.71
966.90	1716.20
967.06	1660.90
967.22	1560.55
967.39	1708.01
967.55	1548.26
967.71	1587.18
967.88	1556.46
968.04	1558.50
968.20	1574.89
968.37	1587.18
968.53	1583.08
968.69	1576.94
968.85	1671.14
969.02	1609.70
969.18	1671.14
969.34	1638.38
969.51	1597.42
969.67	1705.96
969.83	1546.22
970.00	1654.76
970.16	1652.71
970.32	1646.57
970.48	1703.91
970.65	1648.61
970.81	1617.90
970.97	1621.99
971.14	1517.54
971.30	1646.57
971.46	1607.66
971.63	1634.28
971.79	1634.28
971.95	1574.89
972.11	1548.26
972.28	1589.22
972.44	1691.62
972.60	1550.31
972.76	1634.28
972.93	1630.18
973.09	1628.14
973.25	1617.90
973.42	1568.74
973.58	1681.38
973.74	1624.04
973.90	1634.28
974.07	1640.42
974.23	1585.13
974.39	1730.53
974.55	1562.60
974.72	1576.94
974.88	1517.54
975.04	1619.94
975.20	1638.38
975.37	1667.05
975.53	1642.47
975.69	1615.85
975.85	1558.50
976.01	1533.93
976.18	1572.84
976.34	1599.46
976.50	1683.43
976.66	1683.43
976.83	1619.94
976.99	1638.38
977.15	1599.46
977.31	1501.16
977.47	1695.72
977.64	1650.66
977.80	1505.26
977.96	1716.20
978.12	1679.33
978.29	1591.27
978.45	1529.83
978.61	1626.09
978.77	1738.73
978.93	1535.98
979.10	1658.85
979.26	1605.61
979.42	1593.32
979.58	1542.12
979.74	1611.75
979.91	1656.81
980.07	1527.78
980.23	1613.80
980.39	1595.37
980.55	1589.22
980.71	1593.32
980.88	1525.74
981.04	1552.36
981.20	1646.57
981.36	1560.55
981.52	1601.51
981.68	1544.17
981.85	1708.01
982.01	1624.04
982.17	1591.27
982.33	1562.60
982.49	1632.23
982.65	1585.13
982.82	1595.37
982.98	1593.32
983.14	1568.74
983.30	1644.52
983.46	1632.23
983.62	1632.23
983.79	1599.46
983.95	1529.83
984.11	1470.44
984.27	1554.41
984.43	1638.38
984.59	1585.13
984.75	1621.99
984.91	1583.08
985.08	1609.70
985.24	1617.90
985.40	1525.74
985.56	1650.66
985.72	1650.66
985.88	1679.33
986.04	1554.41
986.20	1544.17
986.37	1634.28
986.53	1595.37
986.69	1677.29
986.85	1583.08
987.01	1523.69
987.17	1644.52
987.33	1542.12
987.49	1568.74
987.65	1656.81
987.82	1599.46
987.98	1576.94
988.14	1578.98
988.30	1681.38
988.46	1540.07
988.62	1650.66
988.78	1621.99
988.94	1640.42
989.10	1617.90
989.26	1523.69
989.42	1574.89
989.59	1589.22
989.75	1552.36
989.91	1652.71
990.07	1583.08
990.23	1671.14
990.39	1626.09
990.55	1703.91
990.71	1669.09
990.87	1554.41
991.03	1648.61
991.19	1611.75
991.35	1603.56
991.51	1652.71
991.67	1648.61
991.83	1521.64
992.00	1605.61
992.16	1693.67
992.32	1677.29
992.48	1665.00
992.64	1568.74
992.80	1626.09
992.96	1650.66
993.12	1605.61
993.28	1581.03
993.44	1599.46
993.60	1638.38
993.76	1578.98
993.92	1619.94
994.08	1644.52
994.24	1560.55
994.40	1611.75
994.56	1609.70
994.72	1564.65
994.88	1556.46
995.04	1683.43
995.20	1630.18
995.36	1607.66
995.52	1630.18
995.68	1636.33
995.84	1595.37
996.00	1699.81
996.16	1615.85
996.32	1593.32
996.48	1654.76
996.64	1667.05
996.80	1605.61
996.96	1667.05
997.12	1572.84
997.28	1597.42
997.44	1546.22
997.60	1583.08
997.76	1572.84
997.92	1667.05
998.08	1581.03
998.24	1597.42
998.40	1615.85
998.56	1648.61
998.72	1599.46
998.88	1531.88
999.04	1632.23
999.20	1609.70
999.36	1583.08
999.52	1675.24
999.68	1630.18
999.84	1675.24
1000.00	1591.27
1000.16	1628.14
1000.32	1566.70
1000.48	1691.62
1000.64	1540.07
1000.80	1576.94
1000.95	1495.02
1001.11	1626.09
1001.27	1564.65
1001.43	1611.75
1001.59	1581.03
1001.75	1552.36
1001.91	1597.42
1002.07	1640.42
1002.23	1615.85
1002.39	1599.46
1002.55	1626.09
1002.71	1560.55
1002.87	1591.27
1003.03	1574.89
1003.19	1597.42
1003.34	1695.72
1003.50	1556.46
1003.66	1642.47
1003.82	1642.47
1003.98	1615.85
1004.14	1675.24
1004.30	1542.12
1004.46	1583.08
1004.62	1554.41
1004.78	1535.98
1004.94	1636.33
1005.09	1617.90
1005.25	1699.81
1005.41	1556.46
1005.57	1617.90
1005.73	1560.55
1005.89	1544.17
1006.05	1648.61
1006.21	1609.70
1006.37	1556.46
1006.52	1454.06
1006.68	1521.64
1006.84	1683.43
1007.00	1568.74
1007.16	1617.90
1007.32	1570.79
1007.48	1548.26
1007.64	1705.96
1007.79	1540.07
1007.95	1503.21
1008.11	1660.90
1008.27	1499.11
1008.43	1644.52
1008.59	1613.80
1008.75	1683.43
1008.91	1640.42
1009.06	1607.66
1009.22	1640.42
1009.38	1632.23
1009.54	1617.90
1009.70	1581.03
1009.86	1601.51
1010.01	1597.42
1010.17	1564.65
1010.33	1597.42
1010.49	1562.60
1010.65	1691.62
1010.81	1529.83
1010.96	1660.90
1011.12	1554.41
1011.28	1544.17
1011.44	1621.99
1011.60	1624.04
1011.76	1621.99
1011.91	1613.80
1012.07	1583.08
1012.23	1529.83
1012.39	1556.46
1012.55	1650.66
1012.71	1562.60
1012.86	1617.90
1013.02	1642.47
1013.18	1519.59
1013.34	1673.19
1013.50	1613.80
1013.65	1644.52
1013.81	1564.65
1013.97	1587.18
1014.13	1558.50
1014.29	1581.03
1014.44	1624.04
1014.60	1597.42
1014.76	1574.89
1014.92	1523.69
1015.07	1624.04
1015.23	1689.57
1015.39	1568.74
1015.55	1613.80
1015.71	1617.90
1015.86	1609.70
1016.02	1533.93
1016.18	1445.87
1016.34	1640.42
1016.49	1656.81
1016.65	1730.53
1016.81	1572.84
1016.97	1597.42
1017.12	1695.72
1017.28	1583.08
1017.44	1535.98
1017.60	1568.74
1017.75	1617.90
1017.91	1626.09
1018.07	1605.61
1018.23	1599.46
1018.38	1564.65
1018.54	1617.90
1018.70	1654.76
1018.86	1595.37
1019.01	1597.42
1019.17	1609.70
1019.33	1724.39
1019.49	1654.76
1019.64	1630.18
1019.80	1632.23
1019.96	1597.42
1020.12	1560.55
1020.27	1578.98
1020.43	1615.85
1020.59	1611.75
1020.74	1650.66
1020.90	1607.66
1021.06	1581.03
1021.22	1607.66
1021.37	1607.66
1021.53	1503.21
1021.69	1615.85
1021.84	1560.55
1022.00	1644.52
1022.16	1632.23
1022.31	1630.18
1022.47	1593.32
1022.63	1673.19
1022.79	1507.30
1022.94	1640.42
1023.10	1671.14
1023.26	1527.78
1023.41	1527.78
1023.57	1626.09
1023.73	1634.28
1023.88	1650.66
1024.04	1564.65
1024.20	1578.98
1024.35	1626.09
1024.51	1609.70
1024.67	1601.51
1024.82	1640.42
1024.98	1599.46
1025.14	1681.38
1025.29	1556.46
1025.45	1650.66
1025.61	1507.30
1025.76	1646.57
1025.92	1632.23
1026.08	1699.81
1026.23	1658.85
1026.39	1679.33
1026.55	1501.16
1026.70	1568.74
1026.86	1646.57
1027.02	1654.76
1027.17	1558.50
1027.33	1720.29
1027.48	1603.56
1027.64	1560.55
1027.80	1597.42
1027.95	1667.05
1028.11	1517.54
1028.27	1634.28
1028.42	1673.19
1028.58	1560.55
1028.73	1605.61
1028.89	1505.26
1029.05	1673.19
1029.20	1634.28
>>>>>End Processed Spectral Data<<<<<
