SpectraSuite Data File
++++++++++++++++++++++++++++++++++++
Date: Tue Jun 13 12:03:49 CEST 2017
User: INFO_000
Dark Spectrum Present: No
Reference Spectrum Present: No
Number of Sampled Component Spectra: 1
Spectrometers: USB4H00879
Integration Time (usec): 30000 (USB4H00879)
Spectra Averaged: 1 (USB4H00879)
Boxcar Smoothing: 0 (USB4H00879)
Correct for Electrical Dark: No (USB4H00879)
Strobe/Lamp Enabled: No (USB4H00879)
Correct for Detector Non-linearity: No (USB4H00879)
Correct for Stray Light: No (USB4H00879)
Number of Pixels in Processed Spectrum: 3648
>>>>>Begin Processed Spectral Data<<<<<
345.13	1331.18
345.34	1331.18
345.56	1331.18
345.78	1372.14
345.99	1423.34
346.21	1441.77
346.42	1564.65
346.64	1511.40
346.86	1599.46
347.07	1484.78
347.29	1525.74
347.50	1437.67
347.72	1497.07
347.94	1505.26
348.15	1449.96
348.37	1490.92
348.59	1529.83
348.80	1521.64
349.02	1677.29
349.23	1595.37
349.45	1611.75
349.67	1603.56
349.88	1630.18
350.10	1603.56
350.31	1681.38
350.53	1581.03
350.75	1632.23
350.96	1634.28
351.18	1591.27
351.39	1611.75
351.61	1583.08
351.82	1609.70
352.04	1644.52
352.26	1558.50
352.47	1628.14
352.69	1646.57
352.90	1673.19
353.12	1640.42
353.34	1652.71
353.55	1681.38
353.77	1644.52
353.98	1550.31
354.20	1658.85
354.41	1671.14
354.63	1652.71
354.85	1691.62
355.06	1722.34
355.28	1585.13
355.49	1636.33
355.71	1681.38
355.92	1624.04
356.14	1646.57
356.35	1671.14
356.57	1693.67
356.79	1683.43
357.00	1658.85
357.22	1683.43
357.43	1611.75
357.65	1638.38
357.86	1714.15
358.08	1701.86
358.29	1630.18
358.51	1710.05
358.72	1652.71
358.94	1632.23
359.16	1654.76
359.37	1689.57
359.59	1626.09
359.80	1763.30
360.02	1712.10
360.23	1650.66
360.45	1761.25
360.66	1722.34
360.88	1646.57
361.09	1662.95
361.31	1642.47
361.52	1724.39
361.74	1785.83
361.95	1683.43
362.17	1646.57
362.38	1677.29
362.60	1751.01
362.81	1748.97
363.03	1699.81
363.24	1732.58
363.46	1736.68
363.67	1718.25
363.89	1720.29
364.10	1763.30
364.32	1677.29
364.53	1742.82
364.75	1679.33
364.96	1640.42
365.18	1751.01
365.39	1689.57
365.61	1720.29
365.82	1816.55
366.04	1734.63
366.25	1691.62
366.47	1794.02
366.68	1753.06
366.90	1726.44
367.11	1781.73
367.33	1847.27
367.54	1841.12
367.76	1767.40
367.97	1796.07
368.19	1703.91
368.40	1810.40
368.62	1732.58
368.83	1781.73
369.05	1714.15
369.26	1742.82
369.48	1697.77
369.69	1665.00
369.91	1775.59
370.12	1759.21
370.33	1826.79
370.55	1705.96
370.76	1769.44
370.98	1818.60
371.19	1722.34
371.41	1736.68
371.62	1832.93
371.84	1746.92
372.05	1875.94
372.27	1716.20
372.48	1769.44
372.69	1738.73
372.91	1837.03
373.12	1869.80
373.34	1785.83
373.55	1880.04
373.77	1837.03
373.98	1820.64
374.20	1904.61
374.41	1841.12
374.62	1814.50
374.84	1822.69
375.05	1939.43
375.27	1830.88
375.48	1888.23
375.70	1927.14
375.91	1880.04
376.12	1894.37
376.34	1916.90
376.55	1863.65
376.77	1900.52
376.98	1902.56
377.19	1882.08
377.41	1873.89
377.62	1986.53
377.84	1916.90
378.05	1898.47
378.27	1943.52
378.48	1998.82
378.69	1959.91
378.91	1916.90
379.12	2004.96
379.34	1998.82
379.55	1955.81
379.76	1953.76
379.98	1961.95
380.19	1949.67
380.41	2062.30
380.62	1990.63
380.83	2033.63
381.05	1920.99
381.26	2084.83
381.47	1966.05
381.69	1992.67
381.90	2033.63
382.12	1970.15
382.33	1970.15
382.54	1964.00
382.76	1986.53
382.97	2019.30
383.19	2004.96
383.40	2062.30
383.61	1988.58
383.83	1988.58
384.04	2052.06
384.25	2099.17
384.47	2011.11
384.68	2050.02
384.89	2039.78
385.11	2009.06
385.32	2037.73
385.54	2062.30
385.75	2174.94
385.96	2070.50
386.18	2064.35
386.39	2099.17
386.60	2074.59
386.82	2115.55
387.03	2119.65
387.24	2176.99
387.46	2103.26
387.67	2172.89
387.88	2181.09
388.10	2217.95
388.31	2113.50
388.52	2213.85
388.74	2152.42
388.95	2230.24
389.16	2152.42
389.38	2179.04
389.59	2289.63
389.80	2242.53
390.02	2228.19
390.23	2228.19
390.44	2195.42
390.66	2312.16
390.87	2191.33
391.08	2197.47
391.30	2258.91
391.51	2244.57
391.72	2244.57
391.94	2308.06
392.15	2293.72
392.36	2369.50
392.58	2183.13
392.79	2220.00
393.00	2254.81
393.22	2342.88
393.43	2447.32
393.64	2293.72
393.85	2344.92
394.07	2289.63
394.28	2355.16
394.49	2432.99
394.71	2338.78
394.92	2459.61
395.13	2310.11
395.35	2334.68
395.56	2396.12
395.77	2367.45
395.98	2381.79
396.20	2443.23
396.41	2426.84
396.62	2541.53
396.84	2445.27
397.05	2492.38
397.26	2500.57
397.47	2519.00
397.69	2389.98
397.90	2643.93
398.11	2492.38
398.32	2502.62
398.54	2381.79
398.75	2514.91
398.96	2527.19
399.18	2645.98
399.39	2607.06
399.60	2564.06
399.81	2590.68
400.03	2607.06
400.24	2648.02
400.45	2529.24
400.66	2584.54
400.88	2504.67
401.09	2625.50
401.30	2652.12
401.51	2758.61
401.73	2723.80
401.94	2723.80
402.15	2658.26
402.36	2764.76
402.58	2736.09
402.79	2748.37
403.00	2664.41
403.21	2699.22
403.43	2766.81
403.64	2754.52
403.85	2723.80
404.06	2799.57
404.27	2805.72
404.49	2734.04
404.70	2762.71
404.91	2863.06
405.12	2807.77
405.34	2852.82
405.55	2803.67
405.76	2848.72
405.97	2826.20
406.19	2883.54
406.40	2848.72
406.61	2881.49
406.82	2965.46
407.03	2879.44
407.25	2809.81
407.46	2959.31
407.67	2955.22
407.88	2992.08
408.09	2777.05
408.31	3008.47
408.52	3016.66
408.73	2924.50
408.94	2893.78
409.15	2979.79
409.37	3030.99
409.58	3041.23
409.79	3022.80
410.00	3143.63
410.21	3108.82
410.43	2963.41
410.64	2951.12
410.85	3119.06
411.06	3071.95
411.27	3149.78
411.48	3069.91
411.70	3172.30
411.91	3131.34
412.12	3108.82
412.33	3131.34
412.54	3233.74
412.76	3270.61
412.97	3200.98
413.18	3127.25
413.39	3145.68
413.60	3225.55
413.81	3200.98
414.03	3117.01
414.24	3207.12
414.45	3235.79
414.66	3108.82
414.87	3274.70
415.08	3151.82
415.30	3295.18
415.51	3305.42
415.72	3182.54
415.93	3293.13
416.14	3291.09
416.35	3317.71
416.56	3348.43
416.78	3332.05
416.99	3399.63
417.20	3399.63
417.41	3364.81
417.62	3405.77
417.83	3368.91
418.04	3381.20
418.26	3495.88
418.47	3317.71
418.68	3557.32
418.89	3497.93
419.10	3571.66
419.31	3438.54
419.52	3502.03
419.73	3555.27
419.95	3444.68
420.16	3639.24
420.37	3532.75
420.58	3610.57
420.79	3553.23
421.00	3563.47
421.21	3708.87
421.42	3688.39
421.63	3649.48
421.85	3669.96
422.06	3680.20
422.27	3819.46
422.48	3678.15
422.69	3719.11
422.90	3712.97
423.11	3772.36
423.32	3751.88
423.53	3819.46
423.75	3827.65
423.96	3831.75
424.17	3966.92
424.38	3991.49
424.59	3801.03
424.80	3966.92
425.01	3962.82
425.22	3876.80
425.43	3907.52
425.64	4220.86
425.85	4112.32
426.06	3942.34
426.28	3792.84
426.49	4038.59
426.70	4061.12
426.91	4057.03
427.12	4136.90
427.33	4124.61
427.54	4145.09
427.75	4095.94
427.96	4417.47
428.17	4112.32
428.38	4253.63
428.59	4224.96
428.80	4214.72
429.01	4243.39
429.23	4255.68
429.44	4599.74
429.65	4372.41
429.86	4382.65
430.07	4294.59
430.28	4358.08
430.49	4290.49
430.70	4327.36
430.91	4564.92
431.12	4368.32
431.33	4485.05
431.54	4450.24
431.75	4575.16
431.96	4636.60
432.17	4485.05
432.38	4546.49
432.59	4743.10
432.80	4620.22
433.01	4800.44
433.22	4648.89
433.43	4804.53
433.64	4575.16
433.85	4628.41
434.06	4820.92
434.27	4683.70
434.49	4689.85
434.70	4814.77
434.91	4777.91
435.12	4800.44
435.33	4853.69
435.54	4923.32
435.75	4650.94
435.96	4792.25
436.17	4849.59
436.38	4997.04
436.59	4931.51
436.80	4886.45
437.01	4988.85
437.22	5070.77
437.43	5072.82
437.64	4868.02
437.85	5066.67
438.06	5035.96
438.27	4960.18
438.48	5062.58
438.69	5119.92
438.90	5269.42
439.11	5083.06
439.32	5111.73
439.53	5183.41
439.74	5283.76
439.95	5066.67
440.16	5371.82
440.37	5205.94
440.57	5257.14
440.78	5298.10
440.99	5382.06
441.20	5386.16
441.41	5285.81
441.62	5435.31
441.83	5253.04
442.04	5498.80
442.25	5316.53
442.46	5396.40
442.67	5633.96
442.88	5842.85
443.09	5480.36
443.30	5420.97
443.51	5488.56
443.72	5654.44
443.93	5535.66
444.14	5709.74
444.35	5593.00
444.56	5660.59
444.77	5771.18
444.98	5664.68
445.19	5728.17
445.40	5732.26
445.61	5689.26
445.81	5758.89
446.02	5834.66
446.23	5707.69
446.44	5644.20
446.65	5857.19
446.86	5791.66
447.07	5863.33
447.28	6037.41
447.49	6066.08
447.70	5801.90
447.91	5965.73
448.12	6023.08
448.33	6041.51
448.54	6029.22
448.74	5975.97
448.95	6248.35
449.16	5924.77
449.37	6363.04
449.58	6055.84
449.79	6336.42
450.00	6043.56
450.21	6240.16
450.42	6389.66
450.63	6225.82
450.84	6244.26
451.05	6360.99
451.25	6375.33
451.46	6182.82
451.67	6393.76
451.88	6354.85
452.09	6487.96
452.30	6416.29
452.51	6342.56
452.72	6537.12
452.93	6696.86
453.13	6406.05
453.34	6440.86
453.55	6698.91
453.76	6598.56
453.97	6971.29
454.18	6688.67
454.39	6811.54
454.60	6602.65
454.81	6698.91
455.01	6901.65
455.22	6645.66
455.43	6901.65
455.64	6991.77
455.85	7200.66
456.06	7188.37
456.27	7141.27
456.48	7071.64
456.68	7085.97
456.89	6979.48
457.10	7045.01
457.31	7231.38
457.52	7004.05
457.73	7180.18
457.94	7405.46
458.14	7284.62
458.35	7557.00
458.56	7391.12
458.77	7360.40
458.98	7612.30
459.19	7427.98
459.39	7632.78
459.60	7694.22
459.81	7495.57
460.02	7733.13
460.23	7561.10
460.44	7851.91
460.65	7808.90
460.85	7919.50
461.06	7743.37
461.27	7679.88
461.48	7995.27
461.69	8152.96
461.89	7763.85
462.10	7974.79
462.31	7882.63
462.52	8003.46
462.73	8136.58
462.94	8202.11
463.14	8185.73
463.35	8146.82
463.56	8486.78
463.77	8415.10
463.98	8148.87
464.18	8222.59
464.39	8380.29
464.60	8544.13
464.81	8593.28
465.02	8595.32
465.23	8771.45
465.43	8619.90
465.64	8900.47
465.85	8828.79
466.06	8660.86
466.27	8988.53
466.47	8937.34
466.68	8898.42
466.89	9070.45
467.10	9105.27
467.30	8908.66
467.51	9113.46
467.72	9308.02
467.93	9074.55
468.14	9355.12
468.34	9365.36
468.55	9500.53
468.76	9492.34
468.97	9660.27
469.17	9557.87
469.38	9619.31
469.59	9678.70
469.80	9756.52
470.01	9576.30
470.21	9860.97
470.42	10002.28
470.63	10256.23
470.84	9789.29
471.04	10012.52
471.25	10131.30
471.46	10030.95
471.67	10395.49
471.87	10258.28
472.08	10428.26
472.29	10479.46
472.50	10338.15
472.70	10397.54
472.91	10551.14
473.12	10663.77
473.33	10608.48
473.53	10796.89
473.74	10600.29
473.95	10954.58
474.16	11118.42
474.36	11261.78
474.57	11126.61
474.78	11317.08
474.99	11136.85
475.19	11140.95
475.40	11577.17
475.61	11548.50
475.81	11689.81
476.02	11884.36
476.23	11667.28
476.44	11751.24
476.64	11984.71
476.85	11867.98
477.06	12050.25
477.27	12240.71
477.47	12330.82
477.68	12318.53
477.89	12508.99
478.09	12275.52
478.30	12617.54
478.51	12478.27
478.71	12805.95
478.92	12662.59
479.13	12836.67
479.34	12982.07
479.54	12808.00
479.75	13068.09
479.96	12816.19
480.16	13217.59
480.37	13180.73
480.58	13465.39
480.78	13469.49
480.99	13616.94
481.20	13662.00
481.41	13662.00
481.61	13795.12
481.82	13809.45
482.03	13823.79
482.23	14012.20
482.44	13954.86
482.65	14323.49
482.85	14237.48
483.06	14337.83
483.27	14196.52
483.47	14520.10
483.68	14618.40
483.89	14788.38
484.09	14632.74
484.30	14657.31
484.51	14892.83
484.71	15034.14
484.92	15220.50
485.13	15257.37
485.33	15095.58
485.54	15011.61
485.75	15355.67
485.95	15372.05
486.16	15558.42
486.37	15677.20
486.57	15511.32
486.78	15523.60
486.98	15687.44
487.19	15890.19
487.40	15795.98
487.60	16115.47
487.81	16242.44
488.02	15859.47
488.22	15931.15
488.43	16293.64
488.64	16361.22
488.84	16629.51
489.05	16768.77
489.25	16504.58
489.46	16875.26
489.67	16985.85
489.87	16877.31
490.08	17141.50
490.29	17028.86
490.49	17209.08
490.70	17424.12
490.90	17415.93
491.11	17299.19
491.32	17788.66
491.52	17633.01
491.73	17319.67
491.94	17696.50
492.14	17776.37
492.35	17729.27
492.55	17745.65
492.76	17932.01
492.97	18296.55
493.17	18071.28
493.38	18290.41
493.58	18325.22
493.79	18130.67
494.00	18378.47
494.20	18466.53
494.41	18382.57
494.61	18654.95
494.82	18472.68
495.02	18695.91
495.23	18816.74
495.44	18640.61
495.64	19156.70
495.85	19013.34
496.05	19111.64
496.26	18859.74
496.47	19424.98
496.67	19068.64
496.88	19240.67
497.08	19265.24
497.29	19408.60
497.49	19232.47
497.70	19687.12
497.91	19816.15
498.11	19723.99
498.32	19744.47
498.52	20008.65
498.73	20317.90
498.93	19906.26
499.14	20033.23
499.34	20096.72
499.55	20354.76
499.76	20309.71
499.96	20276.94
500.17	20387.53
500.37	20485.83
500.58	20543.17
500.78	20723.40
500.99	20788.93
501.19	20924.10
501.40	20887.23
501.60	20991.68
501.81	21042.88
502.02	20930.24
502.22	20623.05
502.43	21329.59
502.63	21405.37
502.84	21403.32
503.04	21204.67
503.25	21382.84
503.45	21358.27
503.66	21493.43
503.86	21403.32
504.07	21567.16
504.27	21579.45
504.48	21948.08
504.68	21647.03
504.89	22007.47
505.09	21823.16
505.30	21872.31
505.50	22111.92
505.71	22126.25
505.91	22171.31
506.12	22089.39
506.32	22066.86
506.53	21991.09
506.73	22191.79
506.94	22359.72
507.14	22202.03
507.35	22269.61
507.55	22060.72
507.76	22226.60
507.96	22503.08
508.17	22359.72
508.37	22232.75
508.58	22652.58
508.78	22924.96
508.99	22951.59
509.19	22914.72
509.40	22955.68
509.60	22910.63
509.81	22728.36
510.01	22580.90
510.22	23174.81
510.42	23013.02
510.63	23371.42
510.83	23131.81
511.04	23199.39
511.24	23375.52
511.44	23017.12
511.65	23514.78
511.85	23228.06
512.06	23385.76
512.26	23443.10
512.47	23484.06
512.67	23568.02
512.88	23578.26
513.08	23228.06
513.29	23932.56
513.49	23604.89
513.69	23561.88
513.90	23815.83
514.10	23961.23
514.31	23869.08
514.51	24352.40
514.72	24176.27
514.92	23971.47
515.13	24096.40
515.33	23998.10
515.53	24290.96
515.74	24161.94
515.94	24309.39
516.15	24067.73
516.35	24120.98
516.56	24508.04
516.76	24405.64
516.96	24471.18
517.17	24569.48
517.37	24774.28
517.58	24450.70
517.78	24614.54
517.99	24688.26
518.19	24913.54
518.39	24729.22
518.60	25149.06
518.80	24565.39
519.01	25118.34
519.21	24731.27
519.41	25118.34
519.62	25185.92
519.82	25233.02
520.03	25267.84
520.23	25331.33
520.43	25304.70
520.64	25679.48
520.84	25409.15
521.05	25579.13
521.25	25730.68
521.45	25554.55
521.66	25640.57
521.86	25577.08
522.07	25810.55
522.27	25718.39
522.47	25853.56
522.68	26179.18
522.88	25663.10
523.08	26322.54
523.29	26203.76
523.49	26351.21
523.70	25910.90
523.90	26639.98
524.10	26416.75
524.31	26562.15
524.51	26406.51
524.71	26521.20
524.92	26650.22
525.12	26701.42
525.33	26594.92
525.53	26766.95
525.73	26725.99
525.94	26875.49
526.14	26760.81
526.34	26891.88
526.55	26748.52
526.75	26922.60
526.95	27113.06
527.16	27328.10
527.36	27309.66
527.56	27342.43
527.77	27348.57
527.97	27496.03
528.17	27502.17
528.38	27674.20
528.58	27733.59
528.78	27764.31
528.99	27741.78
529.19	28083.80
529.39	28151.38
529.60	28210.77
529.80	27672.15
530.00	27989.59
530.21	28202.58
530.41	28329.55
530.61	28307.02
530.82	28456.53
531.02	28309.07
531.22	28636.75
531.43	28816.97
531.63	28661.32
531.83	28814.92
532.04	28890.70
532.24	29013.57
532.44	29345.34
532.64	29187.65
532.85	29292.10
533.05	29158.98
533.25	29359.68
533.46	29441.60
533.66	29840.95
533.86	29529.66
534.07	29607.48
534.27	29689.40
534.47	29955.64
534.67	29957.69
534.88	29926.97
535.08	29959.73
535.28	30119.48
535.49	29986.36
535.69	30350.90
535.89	30160.44
536.09	30443.06
536.30	30545.45
536.50	30283.31
536.70	30596.65
536.91	30518.83
537.11	30492.21
537.31	30934.57
537.51	30508.59
537.72	30996.01
537.92	30873.13
538.12	31041.06
538.32	30932.52
538.53	31299.11
538.73	30905.90
538.93	31235.62
539.13	31436.32
539.34	31231.52
539.54	31215.14
539.74	31415.84
539.94	31331.87
540.15	31268.39
540.35	31622.69
540.55	31741.47
540.75	31608.35
540.96	31778.33
541.16	31634.97
541.36	31981.08
541.56	31622.69
541.77	32216.60
541.97	31845.91
542.17	32065.05
542.37	32210.45
542.58	31798.81
542.78	31899.16
542.98	32222.74
543.18	32306.71
543.38	32378.39
543.59	32849.42
543.79	32417.30
543.99	32466.45
544.19	32632.33
544.40	32673.29
544.60	33080.84
544.80	32708.11
545.00	32841.23
545.20	33129.99
545.41	32804.36
545.61	32835.08
545.81	32980.49
546.01	32646.67
546.21	33056.26
546.42	32927.24
546.62	33181.19
546.82	33105.41
547.02	33127.94
547.22	33080.84
547.43	33062.41
547.63	33191.43
547.83	33691.13
548.03	33250.82
548.23	33453.57
548.44	33410.56
548.64	33562.11
548.84	33326.60
549.04	33994.23
549.24	33983.99
549.45	33709.57
549.65	33662.46
549.85	33705.47
550.05	33777.15
550.25	33986.04
550.45	34235.89
550.66	33746.43
550.86	33895.93
551.06	33957.37
551.26	34008.57
551.46	34317.81
551.66	34239.99
551.87	34211.32
552.07	34008.57
552.27	34366.96
552.47	34338.29
552.67	34145.78
552.87	34635.25
553.07	34706.93
553.28	34432.50
553.48	34405.88
553.68	34518.51
553.88	34688.49
554.08	34598.38
554.28	34739.69
554.48	34285.04
554.69	34713.07
554.89	34555.38
555.09	34629.10
555.29	34522.61
555.49	34555.38
555.69	34555.38
555.89	34227.70
556.10	34942.44
556.30	34321.91
556.50	35130.86
556.70	34801.13
556.90	34706.93
557.10	34891.24
557.30	34541.04
557.50	35059.18
557.70	34971.11
557.91	35126.76
558.11	34831.85
558.31	35075.56
558.51	35022.31
558.71	35233.25
558.91	35223.01
559.11	35454.44
559.31	35161.58
559.51	34932.20
559.72	35276.26
559.92	35227.11
560.12	35372.52
560.32	35196.39
560.52	35091.94
560.72	35306.98
560.92	35352.04
561.12	35210.73
561.32	35728.86
561.52	35159.53
561.72	35640.80
561.93	35403.24
562.13	35479.01
562.33	35349.99
562.53	35626.46
562.73	35358.18
562.93	35651.04
563.13	35423.72
563.33	35233.25
563.53	35861.98
563.73	35667.42
563.93	35874.27
564.13	35765.73
564.33	35667.42
564.53	35628.51
564.74	36357.59
564.94	35714.53
565.14	35755.49
565.34	35689.95
565.54	35868.12
565.74	35796.45
565.94	36283.86
566.14	36064.73
566.34	35608.03
566.54	35980.76
566.74	35827.17
566.94	35929.56
567.14	35841.50
567.34	35886.56
567.54	36255.19
567.74	35859.93
567.94	35835.36
568.14	36120.02
568.34	36089.31
568.54	36181.46
568.74	36113.88
568.94	36378.07
569.14	36808.14
569.34	36191.70
569.54	36646.35
569.75	36507.09
569.95	36416.98
570.15	36660.69
570.35	36531.67
570.55	36349.40
570.75	36416.98
570.95	36222.42
571.15	36466.13
571.35	36453.84
571.55	36802.00
571.75	36677.07
571.95	36380.12
572.15	36439.51
572.35	36777.42
572.55	36640.21
572.75	36439.51
572.95	36646.35
573.15	36758.99
573.35	36705.74
573.55	36875.73
573.75	36828.62
573.95	36402.64
574.15	36525.52
574.35	36797.90
574.55	37047.75
574.75	36894.16
574.95	37072.33
575.15	36462.04
575.34	36896.20
575.54	37105.10
575.74	37166.54
575.94	36789.71
576.14	36695.50
576.34	37000.65
576.54	37264.84
576.74	37219.78
576.94	37182.92
577.14	37168.58
577.34	37297.61
577.54	36804.05
577.74	37168.58
577.94	37627.33
578.14	37574.08
578.34	37170.63
578.54	37299.65
578.74	37383.62
578.94	37635.52
579.14	37201.35
579.34	37594.56
579.54	37449.16
579.74	37959.10
579.94	37416.39
580.13	37602.75
580.33	37682.62
580.53	37868.99
580.73	37895.61
580.93	37635.52
581.13	37555.65
581.33	38061.50
581.53	38163.90
581.73	37709.25
581.93	38061.50
582.13	37778.88
582.33	38254.01
582.53	38184.38
582.73	37985.72
582.92	38211.00
583.12	38387.13
583.32	38337.98
583.52	38278.58
583.72	38399.41
583.92	37858.75
584.12	38182.33
584.32	38561.20
584.52	38374.84
584.72	38237.62
584.92	38081.98
585.11	38964.65
585.31	38581.68
585.51	38630.83
585.71	38530.48
585.91	38679.99
586.11	38731.18
586.31	38280.63
586.51	38348.21
586.71	38604.21
586.91	38557.11
587.10	38962.61
587.30	38737.33
587.50	38436.28
587.70	38778.29
587.90	38809.01
588.10	38669.75
588.30	38602.16
588.50	38874.54
588.69	38772.14
588.89	38972.85
589.09	38553.01
589.29	38798.77
589.49	39247.27
589.69	38485.43
589.89	39310.76
590.08	39273.90
590.28	39060.91
590.48	38895.02
590.68	38833.58
590.88	39308.71
591.08	39339.43
591.28	39062.96
591.47	39382.44
591.67	39237.03
591.87	39304.62
592.07	39210.41
592.27	39097.77
592.47	39214.51
592.67	39257.51
592.86	39269.80
593.06	39194.03
593.26	39415.21
593.46	39552.42
593.66	39050.67
593.86	39185.83
594.05	39194.03
594.25	39216.55
594.45	39065.00
594.65	39261.61
594.85	39224.75
595.05	39634.34
595.24	39869.86
595.44	39173.55
595.64	39632.29
595.84	39830.94
596.04	39204.27
596.23	39638.44
596.43	39814.56
596.63	39601.57
596.83	39761.31
597.03	39835.04
597.22	39935.39
597.42	39904.67
597.62	40134.04
597.82	39820.70
598.02	39835.04
598.21	40234.39
598.41	39689.63
598.61	40031.65
598.81	40027.55
599.01	40062.36
599.20	39792.03
599.40	39597.48
599.60	40537.49
599.80	39871.90
600.00	39837.09
600.19	40615.32
600.39	40383.90
600.59	40457.62
600.79	40172.96
600.98	40146.33
601.18	40213.91
601.38	40742.29
601.58	40293.79
601.78	40322.46
601.97	40437.14
602.17	40373.66
602.37	40580.50
602.57	40551.83
602.76	40902.03
602.96	40269.21
603.16	40668.56
603.36	40770.96
603.55	40904.08
603.75	40494.49
603.95	40590.74
604.15	40770.96
604.34	40588.69
604.54	40875.41
604.74	40891.79
604.94	40942.99
605.13	40820.11
605.33	40922.51
605.53	40830.35
605.73	41215.37
605.92	40770.96
606.12	40834.45
606.32	41215.37
606.52	41074.06
606.71	40820.11
606.91	40979.85
607.11	41172.36
607.30	41035.15
607.50	41147.79
607.70	41112.97
607.90	41059.73
608.09	40852.88
608.29	41074.06
608.49	41358.73
608.68	41538.95
608.88	41500.04
609.08	41399.69
609.28	41088.40
609.47	41381.26
609.67	41475.46
609.87	40912.27
610.06	41551.24
610.26	41250.19
610.46	41266.57
610.66	41287.05
610.85	41158.03
611.05	40930.70
611.25	41555.33
611.44	41325.96
611.64	41158.03
611.84	41135.50
612.03	41502.09
612.23	41278.86
612.43	41231.75
612.62	41256.33
612.82	41491.85
613.02	41383.30
613.21	41461.13
613.41	41237.90
613.61	41022.86
613.80	41297.29
614.00	41440.65
614.20	41440.65
614.39	41522.57
614.59	41598.34
614.79	41323.91
614.98	41385.35
615.18	41139.60
615.38	41248.14
615.57	41016.72
615.77	41385.35
615.97	41280.91
616.16	41661.83
616.36	41368.97
616.56	41524.61
616.75	41012.62
616.95	40820.11
617.15	41463.18
617.34	41264.52
617.54	41043.34
617.74	41371.02
617.93	41186.70
618.13	40846.74
618.32	41344.39
618.52	41135.50
618.72	41012.62
618.91	41307.53
619.11	41182.60
619.31	41065.87
619.50	41090.44
619.70	40719.76
619.90	41254.28
620.09	40971.66
620.29	40832.40
620.48	40926.61
620.68	41504.13
620.88	40498.58
621.07	40838.54
621.27	40887.70
621.46	40689.04
621.66	40625.56
621.86	40979.85
622.05	40496.53
622.25	40920.46
622.44	40885.65
622.64	40689.04
622.84	40842.64
623.03	40881.55
623.23	40953.23
623.42	40687.00
623.62	40668.56
623.82	41047.44
624.01	40740.24
624.21	40723.86
624.40	40717.71
624.60	40353.18
624.80	40297.88
624.99	40461.72
625.19	40668.56
625.38	40740.24
625.58	40349.08
625.77	40529.30
625.97	40746.39
626.17	40463.77
626.36	40682.90
626.56	40674.71
626.75	40441.24
626.95	40742.29
627.14	40392.09
627.34	40816.02
627.54	40748.43
627.73	40463.77
627.93	40635.80
628.12	40572.31
628.32	40353.18
628.51	40752.53
628.71	40482.20
628.90	40633.75
629.10	40672.66
629.30	40465.81
629.49	40273.31
629.69	40076.70
629.88	40324.50
630.08	40293.79
630.27	40750.48
630.47	40316.31
630.66	40172.96
630.86	40707.47
631.05	40170.91
631.25	40590.74
631.44	40080.80
631.64	40355.22
631.84	40344.98
632.03	40334.74
632.23	40545.69
632.42	40463.77
632.62	40328.60
632.81	39818.66
633.01	40279.45
633.20	40205.72
633.40	40656.28
633.59	40572.31
633.79	39962.01
633.98	40211.87
634.18	40625.56
634.37	40314.26
634.57	40383.90
634.76	39998.88
634.96	40013.21
635.15	40144.28
635.35	40211.87
635.54	39769.51
635.74	39878.05
635.93	40097.18
636.13	40465.81
636.32	40408.47
636.52	39871.90
636.71	40011.17
636.91	40330.65
637.10	40215.96
637.30	40314.26
637.49	39744.93
637.69	39974.30
637.88	40156.57
638.08	39818.66
638.27	40195.48
638.46	39980.45
638.66	40029.60
638.85	40074.65
639.05	39900.58
639.24	40025.50
639.44	39785.89
639.63	39966.11
639.83	39941.53
640.02	39824.80
640.22	39945.63
640.41	40154.52
640.61	39830.94
640.80	40308.12
640.99	39990.69
641.19	40512.92
641.38	39880.10
641.58	39802.27
641.77	40099.23
641.97	39632.29
642.16	39753.12
642.36	39968.16
642.55	39972.25
642.74	40039.84
642.94	40146.33
643.13	39888.29
643.33	40199.58
643.52	40140.19
643.72	40457.62
643.91	39904.67
644.10	40002.97
644.30	40203.67
644.49	40056.22
644.69	40238.49
644.88	40387.99
645.08	39701.92
645.27	39708.07
645.46	39980.45
645.66	39775.65
645.85	39837.09
646.05	39380.39
646.24	39906.72
646.43	39728.55
646.63	39865.76
646.82	40299.93
647.02	39841.18
647.21	40193.43
647.40	39759.27
647.60	40242.59
647.79	39925.15
647.99	40461.72
648.18	39759.27
648.37	40301.98
648.57	40113.56
648.76	40109.47
648.96	39957.92
649.15	40072.60
649.34	40226.20
649.54	40045.98
649.73	40119.71
649.92	40318.36
650.12	40076.70
650.31	39904.67
650.51	40267.16
650.70	40179.10
650.89	39759.27
651.09	40693.14
651.28	39773.60
651.47	39974.30
651.67	40326.55
651.86	40291.74
652.06	39947.68
652.25	39800.22
652.44	40035.74
652.64	39740.83
652.83	39931.29
653.02	39841.18
653.22	39818.66
653.41	39876.00
653.60	39636.39
653.80	40043.93
653.99	40191.39
654.18	39914.91
654.38	39929.25
654.57	39714.21
654.76	39738.79
654.96	39869.86
655.15	39794.08
655.34	39654.82
655.54	39525.80
655.73	39691.68
655.92	39744.93
656.12	39884.19
656.31	39562.66
656.50	39734.69
656.70	39841.18
656.89	39837.09
657.08	39849.38
657.28	39806.37
657.47	39646.63
657.66	39839.14
657.86	39843.23
658.05	39636.39
658.24	40150.43
658.43	39105.96
658.63	39888.29
658.82	39765.41
659.01	39769.51
659.21	39880.10
659.40	39597.48
659.59	39607.72
659.79	39689.63
659.98	39292.33
660.17	39880.10
660.36	39460.26
660.56	39679.39
660.75	39937.44
660.94	39607.72
661.14	39353.77
661.33	39447.97
661.52	39411.11
661.71	40011.17
661.91	39404.97
662.10	39431.59
662.29	39794.08
662.49	39486.89
662.68	39454.12
662.87	39447.97
663.06	39615.91
663.26	39505.32
663.45	39396.77
663.64	39120.30
663.83	39466.41
664.03	39515.56
664.22	39462.31
664.41	39490.98
664.60	39339.43
664.80	39310.76
664.99	39357.86
665.18	39560.61
665.37	39169.45
665.57	39703.97
665.76	39187.88
665.95	39024.04
666.14	39189.93
666.34	39142.83
666.53	38966.70
666.72	39140.78
666.91	38813.10
667.11	39433.64
667.30	39148.97
667.49	39196.07
667.68	38874.54
667.87	39122.35
668.07	39140.78
668.26	39513.51
668.45	39490.98
668.64	38686.13
668.84	39552.42
669.03	39339.43
669.22	39091.63
669.41	38616.50
669.60	39015.85
669.80	38987.18
669.99	39282.09
670.18	38999.47
670.37	38903.21
670.57	39122.35
670.76	38811.06
670.95	39163.31
671.14	38620.59
671.33	38841.78
671.53	38954.41
671.72	38999.47
671.91	38630.83
672.10	38362.55
672.29	38686.13
672.48	38526.39
672.68	38725.04
672.87	38669.75
673.06	38565.30
673.25	38555.06
673.44	38536.63
673.64	38886.83
673.83	38270.39
674.02	38419.89
674.21	38421.94
674.40	38389.17
674.59	38319.54
674.79	38385.08
674.98	38505.91
675.17	38452.66
675.36	38364.60
675.55	38385.08
675.74	38360.50
675.94	38247.86
676.13	38069.69
676.32	38233.53
676.51	38436.28
676.70	38501.81
676.89	38426.04
677.08	38428.09
677.28	37891.52
677.47	38444.47
677.66	38753.71
677.85	38309.30
678.04	38493.62
678.23	38532.53
678.42	38694.32
678.62	38139.32
678.81	38096.31
679.00	38145.47
679.19	38120.89
679.38	38120.89
679.57	37707.20
679.76	38051.26
679.96	38208.95
680.15	38045.12
680.34	37977.53
680.53	37819.84
680.72	38165.95
680.91	38407.61
681.10	37486.02
681.29	37780.93
681.48	37981.63
681.68	37778.88
681.87	37701.06
682.06	37725.63
682.25	37408.20
682.44	37930.43
682.63	37846.46
682.82	37621.19
683.01	37658.05
683.20	37227.98
683.39	37389.77
683.59	37436.87
683.78	37580.23
683.97	37367.24
684.16	37393.86
684.35	37252.55
684.54	37549.51
684.73	37285.32
684.92	37344.71
685.11	37248.46
685.30	37146.06
685.49	37258.70
685.69	37440.96
685.88	37357.00
686.07	37029.32
686.26	37150.15
686.45	36994.51
686.64	36851.15
686.83	36845.01
687.02	36951.50
687.21	37219.78
687.40	36791.76
687.59	37062.09
687.78	36978.12
687.97	37094.86
688.16	36885.97
688.35	36701.65
688.54	36683.22
688.74	36726.22
688.93	36537.81
689.12	36666.83
689.31	36517.33
689.50	36904.40
689.69	36195.80
689.88	36335.06
690.07	36752.85
690.26	36531.67
690.45	36459.99
690.64	36625.87
690.83	36611.54
691.02	36363.73
691.21	36443.60
691.40	36369.88
691.59	36120.02
691.78	36388.31
691.97	36429.27
692.16	36347.35
692.35	36507.09
692.54	36201.94
692.73	36310.49
692.92	36150.74
693.11	36333.01
693.30	36220.38
693.49	36046.30
693.68	36099.55
693.87	36185.56
694.06	35855.84
694.25	36257.24
694.44	36074.97
694.63	35904.99
694.82	36242.90
695.01	35794.40
695.20	35739.10
695.39	36072.92
695.58	35939.80
695.77	35687.90
695.96	35554.79
696.15	36003.29
696.34	35208.68
696.53	35816.93
696.72	35403.24
696.91	35622.37
697.10	35675.62
697.29	35286.50
697.48	35753.44
697.67	35268.07
697.86	35380.71
698.05	35372.52
698.24	35472.87
698.43	35014.12
698.62	35386.85
698.81	34887.15
699.00	35210.73
699.19	34895.34
699.38	35390.95
699.57	34999.79
699.76	35239.40
699.95	35026.41
700.14	34723.31
700.32	35266.02
700.51	34764.27
700.70	34995.69
700.89	35098.09
701.08	34915.82
701.27	34842.09
701.46	34819.56
701.65	34518.51
701.84	34741.74
702.03	34817.52
702.22	34672.11
702.41	34672.11
702.60	34629.10
702.79	34452.98
702.98	34299.38
703.17	34582.00
703.35	34403.83
703.54	34315.76
703.73	34541.04
703.92	34653.68
704.11	34262.52
704.30	34283.00
704.49	34444.79
704.68	34555.38
704.87	34461.17
705.06	34029.05
705.25	34395.64
705.43	34135.54
705.62	34262.52
705.81	33953.27
706.00	34102.78
706.19	33865.21
706.38	34123.26
706.57	34084.34
706.76	33773.05
706.95	33875.45
707.14	33777.15
707.32	33973.75
707.51	33705.47
707.70	33707.52
707.89	33641.98
708.08	33938.94
708.27	33644.03
708.46	33760.76
708.65	33627.65
708.84	33795.58
709.02	33279.49
709.21	33398.27
709.40	33463.81
709.59	33183.24
709.78	33197.57
709.97	33431.04
710.16	33043.98
710.34	33037.83
710.53	33553.92
710.72	33129.99
710.91	33191.43
711.10	32960.01
711.29	33496.58
711.48	33023.50
711.66	32720.40
711.85	33080.84
712.04	32853.51
712.23	32962.06
712.42	32790.03
712.61	32914.95
712.80	32706.06
712.98	32921.10
713.17	32843.27
713.36	32693.77
713.55	32554.51
713.74	32804.36
713.93	33064.46
714.11	32783.88
714.30	32525.84
714.49	32597.52
714.68	32568.85
714.87	32454.16
715.06	32632.33
715.24	32509.46
715.43	32763.40
715.62	32484.88
715.81	32564.75
716.00	32302.61
716.18	32128.53
716.37	31983.13
716.56	31815.19
716.75	32476.69
716.94	32077.33
717.12	32048.66
717.31	32007.70
717.50	32116.25
717.69	32230.93
717.88	31739.42
718.06	31997.46
718.25	31909.40
718.44	31421.98
718.63	31843.87
718.82	31702.56
719.00	31620.64
719.19	31620.64
719.38	31579.68
719.57	31309.35
719.76	31243.81
719.94	31206.95
720.13	31462.94
720.32	31002.15
720.51	31102.50
720.69	31061.54
720.88	31049.25
721.07	31290.91
721.26	31266.34
721.44	30940.71
721.63	31061.54
721.82	30815.79
722.01	30793.26
722.20	30787.11
722.38	30811.69
722.57	30459.44
722.76	30729.77
722.95	30836.27
723.13	30377.52
723.32	30383.66
723.51	30336.56
723.70	30494.25
723.88	30268.98
724.07	30498.35
724.26	30236.21
724.44	30287.41
724.63	30389.81
724.82	30389.81
725.01	30090.80
725.19	29992.50
725.38	29818.42
725.57	29996.60
725.76	29857.34
725.94	29910.58
726.13	29759.03
726.32	29867.58
726.51	29832.76
726.69	30123.57
726.88	30086.71
727.07	29939.26
727.25	29378.11
727.44	29910.58
727.63	29881.91
727.82	29746.75
728.00	29652.54
728.19	29417.02
728.38	29828.66
728.56	29795.90
728.75	29703.74
728.94	29799.99
729.12	29609.53
729.31	29609.53
729.50	29490.75
729.69	29879.86
729.87	29693.50
730.06	29515.33
730.25	29584.96
730.43	29533.76
730.62	29388.35
730.81	29511.23
730.99	29521.47
731.18	29662.78
731.37	29777.47
731.55	29533.76
731.74	29351.49
731.93	29531.71
732.11	29369.92
732.30	29525.57
732.49	29318.72
732.67	28894.79
732.86	28993.09
733.05	29523.52
733.23	28769.86
733.42	29148.74
733.61	29183.55
733.79	29089.35
733.98	28999.24
734.17	29023.81
734.35	28989.00
734.54	29007.43
734.73	29148.74
734.91	29054.53
735.10	28665.42
735.29	29095.49
735.47	28720.71
735.66	28923.46
735.84	29075.01
736.03	28597.84
736.22	28911.17
736.40	28739.15
736.59	29124.16
736.78	28655.18
736.96	28628.56
737.15	28921.41
737.33	28675.66
737.52	28649.03
737.71	28462.67
737.89	28515.92
738.08	28556.88
738.27	28413.52
738.45	29120.07
738.64	28249.68
738.82	28247.63
739.01	28477.01
739.20	28233.30
739.38	28454.48
739.57	28481.10
739.75	28178.00
739.94	28100.18
740.13	28178.00
740.31	28294.74
740.50	27895.38
740.68	28005.97
740.87	28153.43
741.06	28178.00
741.24	27987.54
741.43	27743.83
741.61	28190.29
741.80	28026.45
741.99	27885.14
742.17	27743.83
742.36	27731.54
742.54	27862.61
742.73	27967.06
742.91	28044.88
743.10	27725.40
743.29	28026.45
743.47	28110.42
743.66	27879.00
743.84	27629.15
744.03	27764.31
744.21	27485.79
744.40	27831.90
744.59	27827.80
744.77	27508.32
744.96	27788.89
745.14	27846.23
745.33	27459.16
745.51	27168.35
745.70	27539.04
745.88	27151.97
746.07	27313.76
746.26	27420.25
746.44	27278.94
746.63	27209.31
746.81	27332.19
747.00	26941.03
747.18	27481.69
747.37	26996.32
747.55	27164.26
747.74	27164.26
747.92	27119.20
748.11	27209.31
748.29	27033.19
748.48	27008.61
748.66	26992.23
748.85	27133.54
749.03	27143.78
749.22	27037.28
749.41	26523.24
749.59	27000.42
749.78	26779.24
749.96	26734.18
750.15	26775.14
750.33	27242.08
750.52	26740.33
750.70	26476.14
750.89	26207.86
751.07	26259.06
751.26	26736.23
751.44	26443.37
751.63	26521.20
751.81	26308.21
752.00	26420.84
752.18	26629.74
752.37	26353.26
752.55	26209.90
752.74	26605.16
752.92	26226.29
753.10	25955.96
753.29	26506.86
753.47	25958.00
753.66	25835.13
753.84	26261.10
754.03	26035.83
754.21	26138.23
754.40	26074.74
754.58	26357.36
754.77	26334.83
754.95	26252.91
755.14	25906.80
755.32	25992.82
755.51	25943.67
755.69	25659.00
755.88	25806.45
756.06	25921.14
756.24	25681.53
756.43	25831.03
756.61	25769.59
756.80	25939.57
756.98	25599.61
757.17	25771.64
757.35	25788.02
757.54	25925.24
757.72	25759.35
757.90	25486.97
758.09	25597.56
758.27	25261.69
758.46	25460.35
758.64	25222.78
758.83	25554.55
759.01	25403.00
759.19	25419.39
759.38	25294.46
759.56	25734.78
759.75	25409.15
759.93	25443.96
760.12	25308.80
760.30	25316.99
760.48	25323.13
760.67	25257.60
760.85	25452.16
761.04	25372.28
761.22	25060.99
761.40	25063.04
761.59	25218.69
761.77	25128.58
761.96	25226.88
762.14	25069.19
762.32	24991.36
762.51	25054.85
762.69	24823.43
762.88	24673.93
763.06	24805.00
763.24	24663.69
763.43	24876.68
763.61	24712.84
763.80	24710.79
763.98	24598.15
764.16	24931.97
764.35	24473.23
764.53	24309.39
764.72	24667.78
764.90	24727.17
765.08	24708.74
765.27	24790.66
765.45	24424.08
765.63	24362.64
765.82	24614.54
766.00	24184.46
766.18	23873.17
766.37	24200.85
766.55	23996.05
766.74	24297.10
766.92	24016.53
767.10	24278.67
767.29	24383.12
767.47	24024.72
767.65	24600.20
767.84	24084.11
768.02	24090.26
768.20	24010.39
768.39	23961.23
768.57	24053.39
768.75	24086.16
768.94	23793.30
769.12	24057.49
769.30	23723.67
769.49	23781.01
769.67	24053.39
769.85	23643.80
770.04	23830.16
770.22	23578.26
770.40	23531.16
770.59	23637.66
770.77	23797.40
770.95	23490.20
771.14	23600.79
771.32	23414.43
771.50	23201.44
771.69	23488.15
771.87	23641.75
772.05	23469.72
772.24	23348.89
772.42	23600.79
772.60	23252.64
772.78	23144.09
772.97	23219.87
773.15	23230.11
773.33	23596.70
773.52	23043.74
773.70	23391.90
773.88	23553.69
774.07	23010.98
774.25	23506.59
774.43	23426.71
774.61	23076.51
774.80	23383.71
774.98	23205.53
775.16	23287.45
775.34	22980.26
775.53	23271.07
775.71	23103.14
775.89	23172.77
776.08	22843.04
776.26	23273.12
776.44	22990.50
776.62	23049.89
776.81	22949.54
776.99	23135.90
777.17	22943.39
777.35	22959.78
777.54	23279.26
777.72	23037.60
777.90	23004.83
778.08	23414.43
778.27	22935.20
778.45	23465.63
778.63	23467.67
778.81	22888.10
779.00	23352.99
779.18	22994.59
779.36	23197.34
779.54	23260.83
779.73	23115.42
779.91	23381.66
780.09	23127.71
780.27	23254.69
780.46	23443.10
780.64	23619.22
780.82	23246.49
781.00	23191.20
781.19	23096.99
781.37	23350.94
781.55	23187.10
781.73	23322.27
781.91	23570.07
782.10	23140.00
782.28	23369.37
782.46	23305.88
782.64	23144.09
782.82	23346.84
783.01	23453.34
783.19	23393.95
783.37	23398.04
783.55	23344.80
783.74	23434.91
783.92	23191.20
784.10	23420.57
784.28	23500.44
784.46	23092.90
784.64	23291.55
784.83	23232.16
785.01	23180.96
785.19	23041.70
785.37	23236.25
785.55	23408.28
785.74	23295.64
785.92	22869.67
786.10	23142.05
786.28	23023.26
786.46	22939.30
786.64	22959.78
786.83	22947.49
787.01	22765.22
787.19	22830.76
787.37	22970.02
787.55	22691.49
787.74	22941.35
787.92	22763.17
788.10	22976.16
788.28	22646.44
788.46	22890.15
788.64	22638.25
788.82	22904.48
789.01	22560.42
789.19	22582.95
789.37	22812.32
789.55	22677.16
789.73	22640.29
789.91	22630.05
790.09	22513.32
790.28	22605.48
790.46	22304.43
790.64	22154.93
790.82	22353.58
791.00	22410.92
791.18	22310.57
791.36	22380.20
791.55	22146.73
791.73	22025.90
791.91	22261.42
792.09	22015.66
792.27	21812.92
792.45	21776.05
792.63	21903.03
792.81	21849.78
793.00	21860.02
793.18	21819.06
793.36	21585.59
793.54	21677.75
793.72	21765.81
793.90	21644.98
794.08	21368.51
794.26	21423.80
794.44	21655.22
794.62	21485.24
794.81	21616.31
794.99	21212.86
795.17	21581.49
795.35	21251.77
795.53	21264.06
795.71	21278.40
795.89	21094.08
796.07	21169.85
796.25	21235.39
796.43	21192.38
796.61	20698.82
796.80	20846.27
796.98	20870.85
797.16	20786.88
797.34	20825.79
797.52	20805.31
797.70	20975.30
797.88	20385.48
798.06	20567.75
798.24	20612.81
798.42	20461.26
798.60	20235.98
798.78	20766.40
798.96	20500.17
799.14	20512.46
799.32	20500.17
799.51	20119.24
799.69	20479.69
799.87	20139.72
800.05	20004.56
800.23	19922.64
800.41	20006.61
800.59	20285.13
800.77	19887.82
800.95	20045.52
801.13	19990.22
801.31	20076.24
801.49	20109.01
801.67	19889.87
801.85	19932.88
802.03	19805.91
802.21	19410.65
802.39	19607.25
802.57	19447.51
802.75	19551.96
802.93	19406.55
803.11	19508.95
803.29	19404.50
803.47	19220.19
803.65	19095.26
803.83	19205.85
804.01	18960.09
804.19	19107.55
804.37	19367.64
804.55	19183.32
804.73	19175.13
804.91	19076.83
805.09	19130.08
805.27	18880.22
805.45	18945.76
805.63	19095.26
805.81	18890.46
805.99	19062.49
806.17	18622.18
806.35	18812.64
806.53	18648.80
806.71	18681.57
806.89	18769.63
807.07	18722.53
807.25	18454.25
807.43	18413.29
807.61	18534.12
807.79	18394.86
807.97	18507.49
808.15	18421.48
808.33	18140.91
808.51	18456.29
808.69	18245.35
808.87	18202.35
809.05	18026.22
809.23	18085.61
809.41	17866.48
809.59	17921.77
809.77	17944.30
809.95	17762.03
810.13	17843.95
810.31	17798.90
810.49	17852.14
810.67	17729.27
810.84	17512.18
811.02	17682.16
811.20	17692.40
811.38	17645.30
811.56	17524.47
811.74	17571.57
811.92	17622.77
812.10	17522.42
812.28	17573.62
812.46	17573.62
812.64	17385.21
812.82	17415.93
813.00	17307.38
813.18	17184.51
813.36	17243.90
813.53	17223.42
813.71	17151.74
813.89	17141.50
814.07	17116.92
814.25	17393.40
814.43	16828.16
814.61	17092.35
814.79	16717.57
814.97	16836.35
815.15	17059.58
815.33	16795.39
815.50	16709.38
815.68	16899.84
815.86	16754.43
816.04	16772.86
816.22	16584.45
816.40	16570.12
816.58	16664.32
816.76	16504.58
816.94	16361.22
817.11	16549.64
817.29	16809.73
817.47	16510.72
817.65	16258.82
817.83	16316.17
818.01	16199.43
818.19	16219.91
818.37	16318.22
818.54	16074.51
818.72	15937.29
818.90	16299.78
819.08	16144.14
819.26	16117.51
819.44	16129.80
819.62	16062.22
819.80	16090.89
819.97	15841.04
820.15	15777.55
820.33	15712.02
820.51	15886.09
820.69	15785.74
820.87	15863.57
821.05	15779.60
821.22	15806.22
821.40	15818.51
821.58	15689.49
821.76	15798.03
821.94	15636.24
822.12	15560.47
822.29	15609.62
822.47	15400.72
822.65	15802.13
822.83	15482.64
823.01	15578.90
823.19	15554.32
823.36	15308.57
823.54	15394.58
823.72	15308.57
823.90	15283.99
824.08	15212.31
824.25	15324.95
824.43	15177.50
824.61	15232.79
824.79	15195.93
824.97	15183.64
825.15	15327.00
825.32	15046.43
825.50	14944.03
825.68	15109.91
825.86	15175.45
826.04	15277.85
826.21	15066.91
826.39	14821.15
826.57	15087.39
826.75	14835.49
826.93	14702.37
827.10	14915.36
827.28	14997.28
827.46	14755.61
827.64	14862.11
827.81	14669.60
827.99	14886.68
828.17	14753.57
828.35	14520.10
828.53	14894.88
828.70	14645.02
828.88	14716.70
829.06	14655.26
829.24	14604.07
829.41	14294.82
829.59	14511.91
829.77	14499.62
829.95	14518.05
830.12	14559.01
830.30	14384.93
830.48	14755.61
830.66	14374.69
830.84	14380.84
831.01	14374.69
831.19	14292.77
831.37	14208.81
831.55	14257.96
831.72	14208.81
831.90	14239.53
832.08	14163.75
832.25	14096.17
832.43	14241.57
832.61	14094.12
832.79	13823.79
832.96	14083.88
833.14	14059.31
833.32	14217.00
833.50	13922.09
833.67	14059.31
833.85	13881.13
834.03	14081.83
834.20	14106.41
834.38	13975.34
834.56	13918.00
834.74	13637.42
834.91	13811.50
835.09	13653.81
835.27	13719.34
835.44	13791.02
835.62	13645.62
835.80	13616.94
835.98	13629.23
836.15	13766.45
836.33	13565.74
836.51	13764.40
836.68	13575.98
836.86	13668.14
837.04	13588.27
837.21	13569.84
837.39	13569.84
837.57	13891.37
837.75	13465.39
837.92	13436.72
838.10	13436.72
838.28	13563.70
838.45	13240.12
838.63	13483.83
838.81	13451.06
838.98	13389.62
839.16	13219.64
839.34	13231.93
839.51	13205.30
839.69	13201.21
839.87	13207.35
840.04	13162.30
840.22	13223.73
840.40	13088.57
840.57	13193.01
840.75	13147.96
840.93	12902.20
841.10	13449.01
841.28	13143.86
841.46	13133.62
841.63	13326.13
841.81	13100.86
841.98	13041.46
842.16	12980.03
842.34	13217.59
842.51	13063.99
842.69	13182.77
842.87	12879.68
843.04	13053.75
843.22	12758.85
843.40	12916.54
843.57	12930.87
843.75	13154.10
843.92	13086.52
844.10	12943.16
844.28	12930.87
844.45	12930.87
844.63	12906.30
844.81	12537.66
844.98	12607.30
845.16	12752.70
845.33	12572.48
845.51	12685.12
845.69	12599.10
845.86	12447.55
846.04	12629.82
846.21	12365.64
846.39	12736.32
846.57	12685.12
846.74	12384.07
846.92	12330.82
847.09	12640.06
847.27	12422.98
847.45	12388.16
847.62	12316.48
847.80	12449.60
847.97	12361.54
848.15	12314.44
848.32	12099.40
848.50	12371.78
848.68	12214.09
848.85	12455.75
849.03	12324.68
849.20	12269.38
849.38	12240.71
849.56	12244.81
849.73	12277.57
849.91	12076.87
850.08	12384.07
850.26	12136.26
850.43	12146.50
850.61	12226.37
850.78	12044.10
850.96	12046.15
851.14	11927.37
851.31	12142.41
851.49	12044.10
851.66	11906.89
851.84	12080.97
852.01	12093.26
852.19	12021.58
852.36	12011.34
852.54	11886.41
852.71	11913.03
852.89	11988.81
853.07	11880.27
853.24	11857.74
853.42	11722.57
853.59	11624.27
853.77	11712.33
853.94	11874.12
854.12	11888.46
854.29	11679.57
854.47	11765.58
854.64	11769.68
854.82	11657.04
854.99	11650.89
855.17	11718.48
855.34	11521.87
855.52	11722.57
855.69	11654.99
855.87	11548.50
856.04	11638.61
856.22	11730.76
856.39	11374.42
856.57	11532.11
856.74	11376.47
856.92	11661.13
857.09	11388.75
857.27	11464.53
857.44	11636.56
857.62	11564.88
857.79	11446.10
857.97	11437.91
858.14	11333.46
858.32	11312.98
858.49	11421.52
858.67	11413.33
858.84	11218.77
859.02	11075.42
859.19	11226.96
859.37	11310.93
859.54	10995.54
859.72	11368.27
859.89	11204.44
860.06	11161.43
860.24	10936.15
860.41	11177.81
860.59	11073.37
860.76	11114.33
860.94	10944.34
861.11	10954.58
861.29	10790.75
861.46	10995.54
861.64	10829.66
861.81	10862.43
861.98	10870.62
862.16	10702.68
862.33	10733.40
862.51	10661.73
862.68	10811.23
862.86	10563.42
863.03	10757.98
863.21	10631.01
863.38	10757.98
863.55	10676.06
863.73	10862.43
863.90	10803.04
864.08	10702.68
864.25	10571.61
864.43	10686.30
864.60	10518.37
864.77	10653.53
864.95	10491.74
865.12	10452.83
865.30	10501.98
865.47	10526.56
865.64	10407.78
865.82	10530.66
865.99	10575.71
866.17	10313.57
866.34	10346.34
866.51	10305.38
866.69	10334.05
866.86	10262.37
867.04	10473.31
867.21	10379.11
867.38	10471.26
867.56	10399.59
867.73	10377.06
867.91	10245.99
868.08	10266.47
868.25	10159.97
868.43	10311.52
868.60	10139.49
868.78	10131.30
868.95	10180.45
869.12	10125.16
869.30	10059.62
869.47	9957.22
869.64	10145.64
869.82	10102.63
869.99	10055.53
870.16	9936.74
870.34	9987.94
870.51	9934.70
870.69	9803.63
870.86	10162.02
871.03	9936.74
871.21	9631.60
871.38	9820.01
871.55	9650.03
871.73	9697.13
871.90	9865.07
872.07	9899.88
872.25	9918.31
872.42	9779.05
872.59	9865.07
872.77	9897.83
872.94	9740.14
873.11	9615.21
873.29	9447.28
873.46	9643.88
873.63	9285.49
873.81	9566.06
873.98	9541.49
874.15	9422.70
874.33	9506.67
874.50	9330.55
874.67	9484.14
874.85	9385.84
875.02	9365.36
875.19	9320.31
875.37	9398.13
875.54	9412.46
875.71	9367.41
875.88	9244.53
876.06	9279.35
876.23	9172.85
876.40	9219.96
876.58	9197.43
876.75	9062.26
876.92	9240.44
877.10	9140.08
877.27	9185.14
877.44	9115.51
877.61	9052.02
877.79	8961.91
877.96	9187.19
878.13	9090.93
878.31	8972.15
878.48	9135.99
878.65	8931.19
878.82	9047.93
879.00	8949.62
879.17	8986.49
879.34	8867.70
879.51	8716.16
879.69	8804.22
879.86	8765.31
880.03	8849.27
880.21	8783.74
880.38	8845.18
880.55	8820.60
880.72	8734.59
880.90	8793.98
881.07	8683.39
881.24	8712.06
881.41	8800.12
881.59	8888.18
881.76	8722.30
881.93	8750.97
882.10	8671.10
882.28	8607.61
882.45	8761.21
882.62	8693.63
882.79	8693.63
882.96	8593.28
883.14	8595.32
883.31	8667.00
883.48	8632.19
883.65	8560.51
883.83	8724.35
884.00	8488.83
884.17	8488.83
884.34	8564.61
884.51	8695.68
884.69	8703.87
884.86	8615.80
885.03	8646.52
885.20	8384.38
885.38	8501.12
885.55	8470.40
885.72	8585.08
885.89	8322.94
886.06	8294.27
886.24	8439.68
886.41	8306.56
886.58	8423.30
886.75	8437.63
886.92	8425.34
887.10	8472.45
887.27	8386.43
887.44	8157.06
887.61	8394.62
887.78	8415.10
887.95	8259.46
888.13	8222.59
888.30	8273.79
888.47	8238.98
888.64	8206.21
888.81	8210.31
888.99	8271.75
889.16	8249.22
889.33	8077.19
889.50	8284.03
889.67	8165.25
889.84	8259.46
890.01	8155.01
890.19	8181.64
890.36	8138.63
890.53	8191.88
890.70	8155.01
890.87	8157.06
891.04	8112.00
891.22	8066.95
891.39	7958.41
891.56	7978.89
891.73	8284.03
891.90	7937.93
892.07	7847.82
892.24	7823.24
892.42	7921.54
892.59	8001.41
892.76	8089.48
892.93	7946.12
893.10	7896.97
893.27	7962.50
893.44	7950.21
893.61	7837.58
893.79	7825.29
893.96	7731.08
894.13	7712.65
894.30	7731.08
894.47	7653.26
894.64	7600.01
894.81	7835.53
894.98	7665.55
895.15	7831.43
895.33	7767.95
895.50	7847.82
895.67	7808.90
895.84	7868.30
896.01	7688.07
896.18	7774.09
896.35	7632.78
896.52	7735.18
896.69	7675.79
896.86	7630.73
897.04	7765.90
897.21	7942.02
897.38	7624.59
897.55	7933.83
897.72	7733.13
897.89	7714.70
898.06	7622.54
898.23	7708.55
898.40	7638.92
898.57	7604.11
898.74	7657.36
898.91	7737.23
899.08	7548.81
899.26	7542.67
899.43	7657.36
899.60	7501.71
899.77	7577.48
899.94	7587.72
900.11	7423.89
900.28	7698.31
900.45	7427.98
900.62	7602.06
900.79	7542.67
900.96	7589.77
901.13	7620.49
901.30	7473.04
901.47	7458.70
901.64	7507.85
901.81	7585.68
901.98	7401.36
902.15	7554.96
902.32	7436.17
902.49	7425.93
902.66	7405.46
902.83	7522.19
903.01	7473.04
903.18	7522.19
903.35	7380.88
903.52	7346.06
903.69	7483.28
903.86	7301.01
904.03	7526.29
904.20	7477.13
904.37	7550.86
904.54	7393.17
904.71	7452.56
904.88	7389.07
905.05	7278.48
905.22	7440.27
905.39	7358.35
905.56	7370.64
905.73	7393.17
905.90	7374.74
906.07	7411.60
906.24	7446.41
906.41	7247.76
906.58	7407.50
906.75	7475.09
906.92	7382.93
907.09	7239.57
907.26	7327.63
907.43	7253.91
907.60	7419.79
907.77	7434.13
907.93	7186.32
908.10	7589.77
908.27	7282.58
908.44	7075.73
908.61	7247.76
908.78	7344.02
908.95	7432.08
909.12	7221.14
909.29	7212.95
909.46	7219.09
909.63	7249.81
909.80	7258.00
909.97	7174.03
910.14	7128.98
910.31	7182.23
910.48	7161.75
910.65	7161.75
910.82	7196.56
910.99	7186.32
911.16	7083.92
911.33	7194.51
911.50	7073.68
911.66	6999.96
911.83	7057.30
912.00	7198.61
912.17	7073.68
912.34	7010.20
912.51	7128.98
912.68	7100.31
912.85	7073.68
913.02	6983.57
913.19	6864.79
913.36	6891.41
913.53	6915.99
913.70	6913.94
913.86	7067.54
914.03	6995.86
914.20	6963.09
914.37	6922.13
914.54	6856.60
914.71	6840.22
914.88	6905.75
915.05	6834.07
915.22	6846.36
915.39	6836.12
915.55	6803.35
915.72	6893.46
915.89	6774.68
916.06	6748.06
916.23	6842.26
916.40	6778.78
916.57	6592.41
916.74	6627.23
916.91	6823.83
917.07	6760.34
917.24	6707.10
917.41	6655.90
917.58	6653.85
917.75	6600.60
917.92	6342.56
918.09	6596.51
918.26	6614.94
918.42	6539.16
918.59	6447.01
918.76	6424.48
918.93	6352.80
919.10	6535.07
919.27	6414.24
919.44	6539.16
919.60	6283.17
919.77	6377.37
919.94	6178.72
920.11	6401.95
920.28	6283.17
920.45	6270.88
920.61	6209.44
920.78	6170.53
920.95	6209.44
921.12	6270.88
921.29	6137.76
921.46	6078.37
921.62	6401.95
921.79	6121.38
921.96	6248.35
922.13	6033.32
922.30	6041.51
922.47	6039.46
922.63	6016.93
922.80	6072.23
922.97	5865.38
923.14	5849.00
923.31	5773.22
923.47	5939.11
923.64	6107.04
923.81	5873.57
923.98	5959.59
924.15	5871.53
924.32	5781.42
924.48	5920.68
924.65	5773.22
924.82	5842.85
924.99	5599.15
925.15	5728.17
925.32	5797.80
925.49	5683.11
925.66	5607.34
925.83	5564.33
925.99	5609.39
926.16	5605.29
926.33	5588.91
926.50	5631.91
926.67	5519.28
926.83	5599.15
927.00	5599.15
927.17	5615.53
927.34	5429.17
927.50	5425.07
927.67	5482.41
927.84	5410.73
928.01	5488.56
928.17	5459.88
928.34	5404.59
928.51	5463.98
928.68	5298.10
928.84	5230.51
929.01	5412.78
929.18	5171.12
929.35	5236.66
929.51	5224.37
929.68	5089.20
929.85	5273.52
930.02	5281.71
930.18	5081.01
930.35	5222.32
930.52	5181.36
930.69	5070.77
930.85	5078.96
931.02	5081.01
931.19	4951.99
931.36	5046.20
931.52	5025.72
931.69	4945.84
931.86	5025.72
932.02	4786.10
932.19	4951.99
932.36	4868.02
932.53	4745.14
932.69	4804.53
932.86	4954.04
933.03	4814.77
933.19	4818.87
933.36	4763.58
933.53	4689.85
933.70	4722.62
933.86	4685.75
934.03	4671.42
934.20	4560.83
934.36	4663.22
934.53	4476.86
934.70	4360.13
934.86	4511.68
935.03	4396.99
935.20	4493.24
935.36	4474.81
935.53	4466.62
935.70	4474.81
935.86	4415.42
936.03	4351.93
936.20	4298.69
936.36	4304.83
936.53	4169.66
936.70	4253.63
936.86	4190.14
937.03	4224.96
937.20	4106.18
937.36	4061.12
937.53	3936.20
937.70	3987.40
937.86	4024.26
938.03	4007.87
938.20	4007.87
938.36	3911.62
938.53	3846.09
938.70	3815.37
938.86	3837.89
939.03	3807.17
939.20	3647.43
939.36	3688.39
939.53	3616.71
939.70	3659.72
939.86	3512.27
940.03	3448.78
940.19	3491.79
940.36	3424.20
940.53	3428.30
940.69	3387.34
940.86	3471.31
941.03	3479.50
941.19	3309.52
941.36	3395.53
941.52	3274.70
941.69	3313.61
941.86	3223.50
942.02	3147.73
942.19	3246.03
942.35	3272.65
942.52	3196.88
942.69	3055.57
942.85	3141.58
943.02	3086.29
943.18	3119.06
943.35	3151.82
943.52	3162.06
943.68	3074.00
943.85	3053.52
944.01	3043.28
944.18	3104.72
944.35	3114.96
944.51	2942.93
944.68	3035.09
944.84	2930.64
945.01	2949.08
945.17	2965.46
945.34	2883.54
945.51	2942.93
945.67	2881.49
945.84	2944.98
946.00	2865.11
946.17	2836.44
946.33	2836.44
946.50	2838.48
946.67	2906.07
946.83	2856.92
947.00	2758.61
947.16	2893.78
947.33	2996.18
947.49	2856.92
947.66	2807.77
947.82	2873.30
947.99	2893.78
948.16	2830.29
948.32	2875.35
948.49	2883.54
948.65	2830.29
948.82	2752.47
948.98	2797.53
949.15	2846.68
949.31	2809.81
949.48	2832.34
949.64	2756.57
949.81	2785.24
949.97	2738.13
950.14	2832.34
950.30	2709.46
950.47	2803.67
950.63	2865.11
950.80	2811.86
950.96	2787.29
951.13	2682.84
951.30	2758.61
951.46	2750.42
951.63	2822.10
951.79	2748.37
951.96	2707.41
952.12	2867.16
952.29	2731.99
952.45	2750.42
952.62	2719.70
952.78	2748.37
952.94	2762.71
953.11	2711.51
953.27	2717.65
953.44	2750.42
953.60	2711.51
953.77	2703.32
953.93	2711.51
954.10	2678.74
954.26	2770.90
954.43	2781.14
954.59	2723.80
954.76	2740.18
954.92	2775.00
955.09	2715.61
955.25	2744.28
955.42	2738.13
955.58	2750.42
955.75	2656.22
955.91	2752.47
956.07	2750.42
956.24	2734.04
956.40	2734.04
956.57	2660.31
956.73	2617.30
956.90	2709.46
957.06	2703.32
957.23	2682.84
957.39	2656.22
957.56	2688.98
957.72	2613.21
957.88	2635.74
958.05	2758.61
958.21	2703.32
958.38	2592.73
958.54	2613.21
958.71	2654.17
958.87	2662.36
959.03	2590.68
959.20	2613.21
959.36	2621.40
959.53	2574.30
959.69	2650.07
959.85	2668.50
960.02	2598.87
960.18	2641.88
960.35	2670.55
960.51	2668.50
960.68	2578.39
960.84	2650.07
961.00	2596.82
961.17	2529.24
961.33	2613.21
961.50	2553.82
961.66	2600.92
961.82	2621.40
961.99	2586.58
962.15	2488.28
962.31	2523.10
962.48	2559.96
962.64	2613.21
962.81	2490.33
962.97	2557.91
963.13	2666.46
963.30	2629.59
963.46	2504.67
963.62	2537.43
963.79	2478.04
963.95	2545.63
964.12	2480.09
964.28	2547.67
964.44	2519.00
964.61	2549.72
964.77	2527.19
964.93	2631.64
965.10	2648.02
965.26	2529.24
965.42	2621.40
965.59	2527.19
965.75	2508.76
965.92	2508.76
966.08	2619.35
966.24	2478.04
966.41	2459.61
966.57	2467.80
966.73	2555.86
966.90	2531.29
967.06	2568.15
967.22	2461.66
967.39	2484.19
967.55	2480.09
967.71	2547.67
967.88	2482.14
968.04	2492.38
968.20	2453.47
968.37	2549.72
968.53	2426.84
968.69	2469.85
968.85	2445.27
969.02	2519.00
969.18	2502.62
969.34	2562.01
969.51	2441.18
969.67	2482.14
969.83	2443.23
970.00	2494.43
970.16	2531.29
970.32	2582.49
970.48	2404.32
970.65	2492.38
970.81	2484.19
970.97	2402.27
971.14	2406.36
971.30	2453.47
971.46	2389.98
971.63	2443.23
971.79	2471.90
971.95	2447.32
972.11	2387.93
972.28	2428.89
972.44	2373.60
972.60	2289.63
972.76	2465.75
972.93	2385.88
973.09	2453.47
973.25	2416.60
973.42	2394.08
973.58	2387.93
973.74	2443.23
973.90	2396.12
974.07	2389.98
974.23	2418.65
974.39	2340.83
974.55	2371.55
974.72	2389.98
974.88	2353.12
975.04	2285.53
975.20	2285.53
975.37	2346.97
975.53	2324.44
975.69	2342.88
975.85	2367.45
976.01	2289.63
976.18	2271.20
976.34	2402.27
976.50	2394.08
976.66	2314.20
976.83	2303.96
976.99	2316.25
977.15	2283.49
977.31	2236.38
977.47	2445.27
977.64	2279.39
977.80	2275.29
977.96	2346.97
978.12	2396.12
978.29	2328.54
978.45	2240.48
978.61	2297.82
978.77	2346.97
978.93	2252.77
979.10	2330.59
979.26	2283.49
979.42	2387.93
979.58	2174.94
979.74	2207.71
979.91	2322.40
980.07	2283.49
980.23	2248.67
980.39	2271.20
980.55	2342.88
980.71	2240.48
980.88	2242.53
981.04	2195.42
981.20	2260.96
981.36	2191.33
981.52	2248.67
981.68	2248.67
981.85	2193.37
982.01	2183.13
982.17	2193.37
982.33	2314.20
982.49	2164.70
982.65	2256.86
982.82	2320.35
982.98	2226.14
983.14	2232.29
983.30	2240.48
983.46	2258.91
983.62	2271.20
983.79	2140.13
983.95	2238.43
984.11	2138.08
984.27	2283.49
984.43	2222.05
984.59	2228.19
984.75	2185.18
984.91	2183.13
985.08	2310.11
985.24	2189.28
985.40	2174.94
985.56	2215.90
985.72	2181.09
985.88	2115.55
986.04	2189.28
986.20	2211.81
986.37	2211.81
986.53	2205.66
986.69	2226.14
986.85	2148.32
987.01	2207.71
987.17	2181.09
987.33	2111.46
987.49	2156.51
987.65	2152.42
987.82	2168.80
987.98	2160.61
988.14	2080.74
988.30	2168.80
988.46	2129.89
988.62	2152.42
988.78	2150.37
988.94	2154.46
989.10	2117.60
989.26	2072.54
989.42	2158.56
989.59	2109.41
989.75	2033.63
989.91	2168.80
990.07	2076.64
990.23	2062.30
990.39	2146.27
990.55	2021.35
990.71	2127.84
990.87	2119.65
991.03	2121.70
991.19	2082.78
991.35	2146.27
991.51	2082.78
991.67	2109.41
991.83	2045.92
992.00	2113.50
992.16	2068.45
992.32	2123.74
992.48	2133.98
992.64	2072.54
992.80	2076.64
992.96	2033.63
993.12	2115.55
993.28	2160.61
993.44	2113.50
993.60	2191.33
993.76	2013.15
993.92	2076.64
994.08	2121.70
994.24	2058.21
994.40	1978.34
994.56	2140.13
994.72	2107.36
994.88	1992.67
995.04	2043.87
995.20	2062.30
995.36	2035.68
995.52	2021.35
995.68	2099.17
995.84	1972.19
996.00	2146.27
996.16	2007.01
996.32	1992.67
996.48	2035.68
996.64	2033.63
996.80	2064.35
996.96	2017.25
997.12	2047.97
997.28	2125.79
997.44	1984.48
997.60	2025.44
997.76	2052.06
997.92	2045.92
998.08	2009.06
998.24	1916.90
998.40	1949.67
998.56	2027.49
998.72	2013.15
998.88	1957.86
999.04	1939.43
999.20	2050.02
999.36	1988.58
999.52	2025.44
999.68	1988.58
999.84	2088.93
1000.00	1939.43
1000.16	2041.82
1000.32	1902.56
1000.48	1959.91
1000.64	2066.40
1000.80	1972.19
1000.95	1984.48
1001.11	1923.04
1001.27	1949.67
1001.43	1998.82
1001.59	1902.56
1001.75	1896.42
1001.91	1935.33
1002.07	1902.56
1002.23	1964.00
1002.39	1927.14
1002.55	1972.19
1002.71	1906.66
1002.87	1925.09
1003.03	1920.99
1003.19	1961.95
1003.34	1961.95
1003.50	2013.15
1003.66	2007.01
1003.82	1933.28
1003.98	1945.57
1004.14	1916.90
1004.30	1847.27
1004.46	1886.18
1004.62	1888.23
1004.78	1847.27
1004.94	1966.05
1005.09	1902.56
1005.25	1925.09
1005.41	1929.19
1005.57	1867.75
1005.73	1888.23
1005.89	1853.41
1006.05	1902.56
1006.21	1992.67
1006.37	1916.90
1006.52	1877.99
1006.68	1849.32
1006.84	1955.81
1007.00	1861.60
1007.16	1941.47
1007.32	1877.99
1007.48	1863.65
1007.64	1851.36
1007.79	1886.18
1007.95	1839.08
1008.11	1920.99
1008.27	1820.64
1008.43	1890.28
1008.59	1888.23
1008.75	1929.19
1008.91	1908.71
1009.06	1916.90
1009.22	1884.13
1009.38	1865.70
1009.54	1880.04
1009.70	1920.99
1009.86	1820.64
1010.01	1861.60
1010.17	1789.92
1010.33	1877.99
1010.49	1914.85
1010.65	1937.38
1010.81	1814.50
1010.96	1918.95
1011.12	1861.60
1011.28	1826.79
1011.44	1812.45
1011.60	1806.31
1011.76	1902.56
1011.91	1814.50
1012.07	1820.64
1012.23	1806.31
1012.39	1920.99
1012.55	1873.89
1012.71	1818.60
1012.86	1787.88
1013.02	1800.16
1013.18	1888.23
1013.34	1818.60
1013.50	1863.65
1013.65	1810.40
1013.81	1841.12
1013.97	1820.64
1014.13	1785.83
1014.29	1798.12
1014.44	1871.84
1014.60	1816.55
1014.76	1779.68
1014.92	1824.74
1015.07	1849.32
1015.23	1822.69
1015.39	1787.88
1015.55	1820.64
1015.71	1828.84
1015.86	1789.92
1016.02	1818.60
1016.18	1791.97
1016.34	1773.54
1016.49	1726.44
1016.65	1865.70
1016.81	1822.69
1016.97	1791.97
1017.12	1802.21
1017.28	1753.06
1017.44	1789.92
1017.60	1710.05
1017.75	1687.53
1017.91	1796.07
1018.07	1839.08
1018.23	1787.88
1018.38	1681.38
1018.54	1841.12
1018.70	1837.03
1018.86	1681.38
1019.01	1761.25
1019.17	1783.78
1019.33	1789.92
1019.49	1767.40
1019.64	1798.12
1019.80	1732.58
1019.96	1802.21
1020.12	1744.87
1020.27	1789.92
1020.43	1761.25
1020.59	1847.27
1020.74	1751.01
1020.90	1777.64
1021.06	1689.57
1021.22	1812.45
1021.37	1744.87
1021.53	1755.11
1021.69	1724.39
1021.84	1744.87
1022.00	1753.06
1022.16	1660.90
1022.31	1730.53
1022.47	1812.45
1022.63	1789.92
1022.79	1701.86
1022.94	1693.67
1023.10	1740.77
1023.26	1687.53
1023.41	1773.54
1023.57	1777.64
1023.73	1773.54
1023.88	1761.25
1024.04	1722.34
1024.20	1726.44
1024.35	1738.73
1024.51	1710.05
1024.67	1738.73
1024.82	1730.53
1024.98	1665.00
1025.14	1726.44
1025.29	1689.57
1025.45	1738.73
1025.61	1751.01
1025.76	1677.29
1025.92	1693.67
1026.08	1755.11
1026.23	1710.05
1026.39	1722.34
1026.55	1665.00
1026.70	1732.58
1026.86	1751.01
1027.02	1677.29
1027.17	1730.53
1027.33	1759.21
1027.48	1716.20
1027.64	1710.05
1027.80	1724.39
1027.95	1716.20
1028.11	1642.47
1028.27	1654.76
1028.42	1689.57
1028.58	1636.33
1028.73	1738.73
1028.89	1703.91
1029.05	1701.86
1029.20	1740.77
>>>>>End Processed Spectral Data<<<<<
