SpectraSuite Data File
++++++++++++++++++++++++++++++++++++
Date: Tue Jun 13 12:03:49 CEST 2017
User: INFO_000
Dark Spectrum Present: No
Reference Spectrum Present: No
Number of Sampled Component Spectra: 1
Spectrometers: USB4H00879
Integration Time (usec): 30000 (USB4H00879)
Spectra Averaged: 1 (USB4H00879)
Boxcar Smoothing: 0 (USB4H00879)
Correct for Electrical Dark: No (USB4H00879)
Strobe/Lamp Enabled: No (USB4H00879)
Correct for Detector Non-linearity: No (USB4H00879)
Correct for Stray Light: No (USB4H00879)
Number of Pixels in Processed Spectrum: 3648
>>>>>Begin Processed Spectral Data<<<<<
345.13	1316.84
345.34	1316.84
345.56	1316.84
345.78	1374.19
345.99	1359.85
346.21	1482.73
346.42	1499.11
346.64	1556.46
346.86	1566.70
347.07	1490.92
347.29	1525.74
347.50	1527.78
347.72	1445.87
347.94	1507.30
348.15	1535.98
348.37	1507.30
348.59	1482.73
348.80	1566.70
349.02	1531.88
349.23	1578.98
349.45	1581.03
349.67	1581.03
349.88	1587.18
350.10	1624.04
350.31	1617.90
350.53	1628.14
350.75	1693.67
350.96	1642.47
351.18	1603.56
351.39	1611.75
351.61	1617.90
351.82	1630.18
352.04	1697.77
352.26	1529.83
352.47	1624.04
352.69	1748.97
352.90	1642.47
353.12	1609.70
353.34	1609.70
353.55	1642.47
353.77	1697.77
353.98	1621.99
354.20	1591.27
354.41	1673.19
354.63	1626.09
354.85	1714.15
355.06	1687.53
355.28	1638.38
355.49	1734.63
355.71	1646.57
355.92	1654.76
356.14	1650.66
356.35	1679.33
356.57	1632.23
356.79	1708.01
357.00	1703.91
357.22	1673.19
357.43	1611.75
357.65	1699.81
357.86	1677.29
358.08	1671.14
358.29	1638.38
358.51	1673.19
358.72	1734.63
358.94	1710.05
359.16	1740.77
359.37	1660.90
359.59	1740.77
359.80	1699.81
360.02	1632.23
360.23	1677.29
360.45	1703.91
360.66	1665.00
360.88	1634.28
361.09	1763.30
361.31	1736.68
361.52	1695.72
361.74	1742.82
361.95	1734.63
362.17	1685.48
362.38	1701.86
362.60	1726.44
362.81	1712.10
363.03	1734.63
363.24	1669.09
363.46	1746.92
363.67	1693.67
363.89	1744.87
364.10	1779.68
364.32	1726.44
364.53	1765.35
364.75	1718.25
364.96	1718.25
365.18	1708.01
365.39	1716.20
365.61	1691.62
365.82	1777.64
366.04	1757.16
366.25	1699.81
366.47	1775.59
366.68	1753.06
366.90	1746.92
367.11	1759.21
367.33	1767.40
367.54	1746.92
367.76	1683.43
367.97	1857.51
368.19	1814.50
368.40	1794.02
368.62	1757.16
368.83	1730.53
369.05	1812.45
369.26	1720.29
369.48	1701.86
369.69	1753.06
369.91	1798.12
370.12	1677.29
370.33	1781.73
370.55	1755.11
370.76	1748.97
370.98	1738.73
371.19	1810.40
371.41	1773.54
371.62	1855.46
371.84	1738.73
372.05	1828.84
372.27	1716.20
372.48	1775.59
372.69	1810.40
372.91	1830.88
373.12	1794.02
373.34	1871.84
373.55	1843.17
373.77	1886.18
373.98	1826.79
374.20	1910.75
374.41	1935.33
374.62	1896.42
374.84	1886.18
375.05	1880.04
375.27	1923.04
375.48	1826.79
375.70	1869.80
375.91	1882.08
376.12	2007.01
376.34	1937.38
376.55	1970.15
376.77	1804.26
376.98	1822.69
377.19	1834.98
377.41	1869.80
377.62	2007.01
377.84	1873.89
378.05	1939.43
378.27	1929.19
378.48	1920.99
378.69	1998.82
378.91	1937.38
379.12	1898.47
379.34	1908.71
379.55	1906.66
379.76	1949.67
379.98	1914.85
380.19	1970.15
380.41	1937.38
380.62	1959.91
380.83	1980.39
381.05	1966.05
381.26	2004.96
381.47	2045.92
381.69	1992.67
381.90	2002.91
382.12	1964.00
382.33	1908.71
382.54	1925.09
382.76	1970.15
382.97	2070.50
383.19	2015.20
383.40	2035.68
383.61	2029.54
383.83	1964.00
384.04	2035.68
384.25	1951.71
384.47	2068.45
384.68	2068.45
384.89	2050.02
385.11	2066.40
385.32	2070.50
385.54	2023.39
385.75	2076.64
385.96	2080.74
386.18	2095.07
386.39	2099.17
386.60	2115.55
386.82	2117.60
387.03	2076.64
387.24	2070.50
387.46	2152.42
387.67	2136.03
387.88	2152.42
388.10	2105.31
388.31	2201.57
388.52	2230.24
388.74	2176.99
388.95	2250.72
389.16	2238.43
389.38	2316.25
389.59	2189.28
389.80	2213.85
390.02	2252.77
390.23	2238.43
390.44	2168.80
390.66	2230.24
390.87	2181.09
391.08	2275.29
391.30	2318.30
391.51	2281.44
391.72	2236.38
391.94	2258.91
392.15	2322.40
392.36	2201.57
392.58	2260.96
392.79	2314.20
393.00	2342.88
393.22	2289.63
393.43	2361.31
393.64	2369.50
393.85	2355.16
394.07	2297.82
394.28	2297.82
394.49	2330.59
394.71	2375.64
394.92	2379.74
395.13	2412.51
395.35	2447.32
395.56	2367.45
395.77	2410.46
395.98	2404.32
396.20	2469.85
396.41	2443.23
396.62	2351.07
396.84	2514.91
397.05	2406.36
397.26	2426.84
397.47	2568.15
397.69	2557.91
397.90	2602.97
398.11	2473.95
398.32	2494.43
398.54	2539.48
398.75	2574.30
398.96	2619.35
399.18	2605.02
399.39	2639.83
399.60	2639.83
399.81	2619.35
400.03	2523.10
400.24	2727.89
400.45	2533.34
400.66	2672.60
400.88	2613.21
401.09	2742.23
401.30	2613.21
401.51	2762.71
401.73	2686.94
401.94	2721.75
402.15	2762.71
402.36	2723.80
402.58	2682.84
402.79	2727.89
403.00	2758.61
403.21	2762.71
403.43	2744.28
403.64	2830.29
403.85	2686.94
404.06	2772.95
404.27	2693.08
404.49	2777.05
404.70	2752.47
404.91	2875.35
405.12	2736.09
405.34	2832.34
405.55	3000.27
405.76	2748.37
405.97	2918.36
406.19	2924.50
406.40	2871.25
406.61	2899.92
406.82	2826.20
407.03	2840.53
407.25	2914.26
407.46	2957.27
407.67	2971.60
407.88	2928.60
408.09	2807.77
408.31	2908.12
408.52	2930.64
408.73	2981.84
408.94	2924.50
409.15	3125.20
409.37	2975.70
409.58	3024.85
409.79	3164.11
410.00	3033.04
410.21	2967.51
410.43	2895.83
410.64	2928.60
410.85	3051.47
411.06	2994.13
411.27	3108.82
411.48	3092.43
411.70	3078.10
411.91	3006.42
412.12	3071.95
412.33	3172.30
412.54	3102.67
412.76	3190.74
412.97	3137.49
413.18	3018.71
413.39	3172.30
413.60	3135.44
413.81	3188.69
414.03	3237.84
414.24	3139.54
414.45	3280.85
414.66	3223.50
414.87	3352.52
415.08	3362.76
415.30	3172.30
415.51	3362.76
415.72	3295.18
415.93	3368.91
416.14	3315.66
416.35	3301.33
416.56	3258.32
416.78	3182.54
416.99	3332.05
417.20	3381.20
417.41	3262.41
417.62	3422.16
417.83	3338.19
418.04	3399.63
418.26	3385.29
418.47	3516.36
418.68	3487.69
418.89	3465.16
419.10	3573.71
419.31	3557.32
419.52	3536.84
419.73	3536.84
419.95	3577.80
420.16	3428.30
420.37	3579.85
420.58	3512.27
420.79	3502.03
421.00	3755.97
421.21	3690.44
421.42	3530.70
421.63	3676.10
421.85	3569.61
422.06	3657.67
422.27	3692.49
422.48	3669.96
422.69	3702.73
422.90	3649.48
423.11	3729.35
423.32	3725.26
423.53	3827.65
423.75	3782.60
423.96	3821.51
424.17	3932.10
424.38	3923.91
424.59	3887.04
424.80	4100.03
425.01	3872.71
425.22	3827.65
425.43	3964.87
425.64	3991.49
425.85	4093.89
426.06	3985.35
426.28	3872.71
426.49	3944.39
426.70	4065.22
426.91	3960.77
427.12	4165.57
427.33	4143.04
427.54	4028.35
427.75	4108.23
427.96	4220.86
428.17	4249.54
428.38	4270.01
428.59	4196.29
428.80	4167.62
429.01	4415.42
429.23	4288.45
429.44	4386.75
429.65	4401.08
429.86	4392.89
430.07	4270.01
430.28	4247.49
430.49	4458.43
430.70	4409.28
430.91	4358.08
431.12	4317.12
431.33	4583.35
431.54	4554.68
431.75	4644.79
431.96	4624.31
432.17	4571.07
432.38	4526.01
432.59	4560.83
432.80	4628.41
433.01	4630.46
433.22	4796.34
433.43	4544.44
433.64	4616.12
433.85	4665.27
434.06	4739.00
434.27	4693.94
434.49	4712.38
434.70	4837.30
434.91	4759.48
435.12	4757.43
435.33	4837.30
435.54	4892.60
435.75	4667.32
435.96	4900.79
436.17	4773.82
436.38	4900.79
436.59	4804.53
436.80	4888.50
437.01	5015.48
437.22	5035.96
437.43	4997.04
437.64	4988.85
437.85	5058.48
438.06	5054.39
438.27	4970.42
438.48	4935.60
438.69	5162.93
438.90	5126.07
439.11	5091.25
439.32	5101.49
439.53	5257.14
439.74	5357.49
439.95	5193.65
440.16	5283.76
440.37	5328.81
440.57	5257.14
440.78	5322.67
440.99	5228.46
441.20	5396.40
441.41	5230.51
441.62	5291.95
441.83	5248.94
442.04	5337.01
442.25	5441.45
442.46	5466.03
442.67	5506.99
442.88	5697.45
443.09	5314.48
443.30	5564.33
443.51	5545.90
443.72	5728.17
443.93	5484.46
444.14	5560.24
444.35	5492.65
444.56	5541.80
444.77	5623.72
444.98	5625.77
445.19	5758.89
445.40	5771.18
445.61	5736.36
445.81	5881.77
446.02	5791.66
446.23	5746.60
446.44	5709.74
446.65	5738.41
446.86	5730.22
447.07	5834.66
447.28	6023.08
447.49	5928.87
447.70	5826.47
447.91	6096.80
448.12	5965.73
448.33	6029.22
448.54	6012.84
448.74	6018.98
448.95	5900.20
449.16	5879.72
449.37	6135.71
449.58	6047.65
449.79	6244.26
450.00	6068.13
450.21	6158.24
450.42	6184.87
450.63	6289.31
450.84	6115.23
451.05	6342.56
451.25	6389.66
451.46	6262.69
451.67	6254.50
451.88	6551.45
452.09	6406.05
452.30	6442.91
452.51	6457.25
452.72	6500.25
452.93	6672.28
453.13	6311.84
453.34	6608.80
453.55	6633.37
453.76	6606.75
453.97	6870.94
454.18	6717.34
454.39	6782.87
454.60	6684.57
454.81	6887.32
455.01	6842.26
455.22	6567.84
455.43	6797.21
455.64	7178.13
455.85	7002.01
456.06	7153.55
456.27	6856.60
456.48	7085.97
456.68	7094.16
456.89	6930.33
457.10	7124.88
457.31	7210.90
457.52	7075.73
457.73	7319.44
457.94	7208.85
458.14	7165.84
458.35	7509.90
458.56	7292.82
458.77	7321.49
458.98	7491.47
459.19	7278.48
459.39	7477.13
459.60	7579.53
459.81	7505.81
460.02	7677.83
460.23	7675.79
460.44	7720.84
460.65	7901.06
460.85	7802.76
461.06	7991.17
461.27	7780.23
461.48	7792.52
461.69	8374.14
461.89	7653.26
462.10	8011.65
462.31	7962.50
462.52	7921.54
462.73	8161.16
462.94	8109.96
463.14	8277.89
463.35	7999.37
463.56	8443.78
463.77	8404.86
463.98	8279.94
464.18	8230.79
464.39	8540.03
464.60	8613.76
464.81	8757.11
465.02	8533.89
465.23	8779.64
465.43	8564.61
465.64	8959.86
465.85	8755.07
466.06	8750.97
466.27	9078.65
466.47	8906.62
466.68	8984.44
466.89	9039.73
467.10	9338.74
467.30	8859.51
467.51	9195.38
467.72	9322.35
467.93	9123.70
468.14	9318.26
468.34	9459.57
468.55	9420.66
468.76	9348.98
468.97	9398.13
469.17	9490.29
469.38	9660.27
469.59	9772.91
469.80	9715.56
470.01	9672.56
470.21	9723.76
470.42	9867.11
470.63	10039.14
470.84	9973.61
471.04	10049.38
471.25	10053.48
471.46	10243.94
471.67	10381.15
471.87	10119.01
472.08	10387.30
472.29	10428.26
472.50	10125.16
472.70	10497.89
472.91	10446.69
473.12	10764.12
473.33	10825.56
473.53	10792.80
473.74	10745.69
473.95	10870.62
474.16	10979.16
474.36	10934.11
474.57	11128.66
474.78	11349.84
474.99	11163.48
475.19	11196.25
475.40	11495.25
475.61	11407.19
475.81	11648.85
476.02	11824.97
476.23	11525.97
476.44	11616.08
476.64	11892.55
476.85	12136.26
477.06	12296.00
477.27	12443.46
477.47	12339.01
477.68	12324.68
477.89	12228.42
478.09	12429.12
478.30	12541.76
478.51	12541.76
478.71	12816.19
478.92	12713.79
479.13	12734.27
479.34	12883.77
479.54	12861.24
479.75	13094.71
479.96	12926.78
480.16	13131.58
480.37	13301.56
480.58	13379.38
480.78	13567.79
480.99	13426.48
481.20	13573.94
481.41	13844.27
481.61	13772.59
481.82	14092.07
482.03	13920.04
482.23	13901.61
482.44	14026.54
482.65	14243.62
482.85	14253.86
483.06	14219.05
483.27	14397.22
483.47	14448.42
483.68	14423.84
483.89	14497.57
484.09	14821.15
484.30	14585.63
484.51	14812.96
484.71	15023.90
484.92	14872.35
485.13	15148.82
485.33	15339.29
485.54	15040.28
485.75	15507.22
485.95	15419.16
486.16	15566.61
486.37	15562.51
486.57	15750.93
486.78	15867.66
486.98	15757.07
487.19	16152.33
487.40	15996.68
487.60	16090.89
487.81	16148.23
488.02	16137.99
488.22	15992.59
488.43	16385.80
488.64	16477.96
488.84	16740.10
489.05	16674.56
489.25	16680.71
489.46	16891.65
489.67	16715.52
489.87	17174.27
490.08	17069.82
490.29	16914.17
490.49	17483.51
490.70	17270.52
490.90	17436.41
491.11	17305.34
491.32	17581.81
491.52	17319.67
491.73	17501.94
491.94	17647.35
492.14	17686.26
492.35	17868.53
492.55	17747.70
492.76	18022.12
492.97	18132.72
493.17	18171.63
493.38	18171.63
493.58	18034.41
493.79	18417.38
494.00	18575.08
494.20	18370.28
494.41	18581.22
494.61	18818.78
494.82	18489.06
495.02	18677.48
495.23	18812.64
495.44	19060.45
495.64	19345.11
495.85	18935.52
496.05	19162.84
496.26	19019.49
496.47	19492.57
496.67	19123.93
496.88	19422.94
497.08	18978.53
497.29	19461.85
497.49	19406.55
497.70	19646.16
497.91	19775.19
498.11	19785.43
498.32	19502.81
498.52	19992.27
498.73	20127.44
498.93	20254.41
499.14	20115.15
499.34	20092.62
499.55	20524.74
499.76	20248.27
499.96	20207.31
500.17	20543.17
500.37	20608.71
500.58	20623.05
500.78	20418.25
500.99	20733.64
501.19	20926.14
501.40	20780.74
501.60	21010.11
501.81	20766.40
502.02	20870.85
502.22	20745.92
502.43	21001.92
502.63	21194.43
502.84	21331.64
503.04	21292.73
503.25	21419.71
503.45	21403.32
503.66	21655.22
503.86	21311.16
504.07	21608.12
504.27	21573.30
504.48	21878.45
504.68	21634.74
504.89	21884.59
505.09	21868.21
505.30	21956.27
505.50	21964.46
505.71	22236.84
505.91	22013.62
506.12	21974.70
506.32	22193.84
506.53	22183.60
506.73	22664.87
506.94	22419.11
507.14	22283.95
507.35	22396.59
507.55	22496.94
507.76	22652.58
507.96	22689.45
508.17	22707.88
508.37	22613.67
508.58	22421.16
508.78	22707.88
508.99	22834.85
509.19	22701.73
509.40	23094.94
509.60	22906.53
509.81	23002.78
510.01	22900.39
510.22	22875.81
510.42	23164.57
510.63	23434.91
510.83	23312.03
511.04	23293.60
511.24	23217.82
511.44	23398.04
511.65	23561.88
511.85	23260.83
512.06	23328.41
512.26	23449.24
512.47	23529.11
512.67	23701.14
512.88	23731.86
513.08	23334.56
513.29	23574.17
513.49	23692.95
513.69	23690.90
513.90	23641.75
514.10	23897.75
514.31	23824.02
514.51	23836.31
514.72	23977.62
514.92	24053.39
515.13	24333.96
515.33	24405.64
515.53	24012.43
515.74	24028.82
515.94	24000.15
516.15	24469.13
516.35	24254.09
516.56	24567.43
516.76	24387.21
516.96	24530.57
517.17	24729.22
517.37	24581.77
517.58	24733.32
517.78	24741.51
517.99	24790.66
518.19	24589.96
518.39	24956.55
518.60	25124.48
518.80	24934.02
519.01	24993.41
519.21	24985.22
519.41	24839.81
519.62	25136.77
519.82	25149.06
520.03	25370.24
520.23	24886.92
520.43	25241.21
520.64	25280.13
520.84	25648.76
521.05	25642.62
521.25	25634.42
521.45	25675.38
521.66	25884.28
521.86	25689.72
522.07	25740.92
522.27	25628.28
522.47	25935.48
522.68	26087.03
522.88	26039.92
523.08	26107.51
523.29	26039.92
523.49	25986.68
523.70	26470.00
523.90	26345.07
524.10	26400.37
524.31	26248.82
524.51	26318.45
524.71	26812.01
524.92	26506.86
525.12	26881.64
525.33	26676.84
525.53	27125.35
525.73	27012.71
525.94	27043.43
526.14	26857.06
526.34	26994.28
526.55	27076.19
526.75	27141.73
526.95	27000.42
527.16	27438.69
527.36	27088.48
527.56	27250.27
527.77	27520.60
527.97	27629.15
528.17	27348.57
528.38	27485.79
528.58	27661.91
528.78	27926.10
528.99	27842.14
529.19	27883.09
529.39	27874.90
529.60	28134.99
529.80	27647.58
530.00	28091.99
530.21	28292.69
530.41	28061.27
530.61	28319.31
530.82	28393.04
531.02	28548.68
531.22	28694.09
531.43	28632.65
531.63	28745.29
531.83	28876.36
532.04	29273.67
532.24	28628.56
532.44	29324.86
532.64	29271.62
532.85	29593.15
533.05	29138.50
533.25	29222.47
533.46	29095.49
533.66	29644.35
533.86	29376.06
534.07	29773.37
534.27	29613.63
534.47	29775.42
534.67	29713.98
534.88	29668.92
535.08	29640.25
535.28	30023.22
535.49	30295.60
535.69	30367.28
535.89	30264.88
536.09	30496.30
536.30	30354.99
536.50	30576.17
536.70	30391.86
536.91	30629.42
537.11	30291.51
537.31	30756.39
537.51	30891.56
537.72	31110.69
537.92	30909.99
538.12	31182.37
538.32	30721.58
538.53	31217.19
538.73	30914.09
538.93	31301.15
539.13	31135.27
539.34	31231.52
539.54	31268.39
539.74	31741.47
539.94	31497.76
540.15	31477.28
540.35	31530.53
540.55	31536.67
540.75	31692.32
540.96	31536.67
541.16	31720.99
541.36	31845.91
541.56	32142.87
541.77	31753.76
541.97	32220.69
542.17	31872.54
542.37	32224.79
542.58	32267.80
542.78	31983.13
542.98	31956.50
543.18	32501.26
543.38	32730.64
543.59	32695.82
543.79	32071.19
543.99	32302.61
544.19	32398.87
544.40	32468.50
544.60	32845.32
544.80	32912.91
545.00	32722.44
545.20	32929.29
545.41	32919.05
545.61	32728.59
545.81	33267.20
546.01	33013.26
546.21	32906.76
546.42	32921.10
546.62	33150.47
546.82	33420.80
547.02	33259.01
547.22	33328.64
547.43	33152.52
547.63	33465.86
547.83	33551.87
548.03	33201.67
548.23	33467.91
548.44	33279.49
548.64	33474.05
548.84	33574.40
549.04	33551.87
549.24	33914.36
549.45	33531.39
549.65	33617.41
549.85	33756.67
550.05	33809.92
550.25	33760.76
550.45	34160.12
550.66	33983.99
550.86	33650.17
551.06	34166.26
551.26	34156.02
551.46	33818.11
551.66	34549.23
551.87	33986.04
552.07	34504.18
552.27	34424.31
552.47	33779.20
552.67	34088.44
552.87	34362.87
553.07	34534.90
553.28	34502.13
553.48	34461.17
553.68	34485.75
553.88	34782.70
554.08	34354.68
554.28	34741.74
554.48	34479.60
554.69	34653.68
554.89	34702.83
555.09	35030.51
555.29	34461.17
555.49	34803.18
555.69	34809.32
555.89	34856.43
556.10	34721.26
556.30	34713.07
556.50	34786.80
556.70	34745.84
556.90	34940.39
557.10	34842.09
557.30	34889.20
557.50	34917.87
557.70	34725.36
557.91	34711.02
558.11	34960.87
558.31	35182.06
558.51	34663.92
558.71	35231.21
558.91	35507.68
559.11	35100.14
559.31	35231.21
559.51	34883.05
559.72	35223.01
559.92	35204.58
560.12	35354.08
560.32	35245.54
560.52	35137.00
560.72	34983.40
560.92	35638.75
561.12	35255.78
561.32	35546.59
561.52	35108.33
561.72	35397.09
561.93	35399.14
562.13	35356.13
562.33	34893.29
562.53	35849.69
562.73	35311.08
562.93	35458.53
563.13	35374.56
563.33	35415.52
563.53	35597.79
563.73	35409.38
563.93	35137.00
564.13	36052.44
564.33	35816.93
564.53	35790.30
564.74	36206.04
564.94	35425.76
565.14	35583.46
565.34	35329.51
565.54	35808.73
565.74	36058.59
565.94	36128.22
566.14	36109.78
566.34	35679.71
566.54	35839.45
566.74	35515.87
566.94	35790.30
567.14	35909.08
567.34	35800.54
567.54	36122.07
567.74	35913.18
567.94	35839.45
568.14	36345.30
568.34	36394.45
568.54	36093.40
568.74	36333.01
568.94	36298.20
569.14	36214.23
569.34	36642.26
569.54	36634.06
569.75	36509.14
569.95	36111.83
570.15	36386.26
570.35	36410.84
570.55	36601.30
570.75	36611.54
570.95	36539.86
571.15	36361.69
571.35	36685.26
571.55	36814.29
571.75	36546.00
571.95	36595.15
572.15	36615.63
572.35	36943.31
572.55	36740.56
572.75	36738.51
572.95	36879.82
573.15	36660.69
573.35	36392.40
573.55	36333.01
573.75	36767.18
573.95	37127.63
574.15	36787.66
574.35	36933.07
574.55	37049.80
574.75	36826.57
574.95	36982.22
575.15	36666.83
575.34	36853.20
575.54	37049.80
575.74	37205.45
575.94	37131.72
576.14	36535.76
576.34	37402.05
576.54	37254.60
576.74	36951.50
576.94	37133.77
577.14	37201.35
577.34	37699.01
577.54	37125.58
577.74	37295.56
577.94	37256.65
578.14	37279.18
578.34	37199.30
578.54	37094.86
578.74	37391.81
578.94	37801.41
579.14	37420.48
579.34	37049.80
579.54	37199.30
579.74	37746.11
579.94	37508.55
580.13	37895.61
580.33	37725.63
580.53	37631.43
580.73	37582.27
580.93	37221.83
581.13	37717.44
581.33	37787.07
581.53	37750.21
581.73	37756.35
581.93	38237.62
582.13	37502.40
582.33	37973.44
582.53	37916.09
582.73	38110.65
582.92	38510.00
583.12	38360.50
583.32	38399.41
583.52	38251.96
583.72	38223.29
583.92	38106.55
584.12	38565.30
584.32	38190.52
584.52	38510.00
584.72	38161.85
584.92	38493.62
585.11	38753.71
585.31	38059.45
585.51	38550.96
585.71	37752.26
585.91	38559.16
586.11	38237.62
586.31	38313.40
586.51	38489.52
586.71	38546.87
586.91	38927.79
587.10	38682.03
587.30	38876.59
587.50	38938.03
587.70	38751.66
587.90	38495.67
588.10	39198.12
588.30	38514.10
588.50	38997.42
588.69	38716.85
588.89	38737.33
589.09	38792.62
589.29	38790.58
589.49	38911.41
589.69	38718.90
589.89	39237.03
590.08	39513.51
590.28	39388.58
590.48	39077.29
590.68	39282.09
590.88	38888.88
591.08	39208.36
591.28	38917.55
591.47	39273.90
591.67	39060.91
591.87	39271.85
592.07	39390.63
592.27	39081.39
592.47	38895.02
592.67	39110.06
592.86	39173.55
593.06	39216.55
593.26	39323.05
593.46	39073.20
593.66	39335.34
593.86	39533.99
594.05	39323.05
594.25	39939.49
594.45	39218.60
594.65	39267.75
594.85	39529.89
595.05	39914.91
595.24	39792.03
595.44	39878.05
595.64	39452.07
595.84	39603.62
596.04	39329.19
596.23	39525.80
596.43	39761.31
596.63	39781.79
596.83	39923.10
597.03	39908.77
597.22	39871.90
597.42	39706.02
597.62	39601.57
597.82	39851.42
598.02	39679.39
598.21	40242.59
598.41	39675.30
598.61	39937.44
598.81	39775.65
599.01	40500.63
599.20	39929.25
599.40	40000.93
599.60	40015.26
599.80	40011.17
600.00	40312.22
600.19	40437.14
600.39	39988.64
600.59	40371.61
600.79	40422.81
600.98	40234.39
601.18	39941.53
601.38	40459.67
601.58	40672.66
601.78	40549.78
601.97	40279.45
602.17	40701.33
602.37	40789.39
602.57	40261.02
602.76	40570.26
602.96	40183.19
603.16	40512.92
603.36	40537.49
603.55	40850.83
603.75	40439.19
603.95	40451.48
604.15	40779.15
604.34	40689.04
604.54	41008.53
604.74	40672.66
604.94	41176.46
605.13	40793.49
605.33	40865.17
605.53	40910.22
605.73	41221.52
605.92	40918.42
606.12	41235.85
606.32	41201.04
606.52	40738.19
606.71	41061.77
606.91	41262.47
607.11	40887.70
607.30	41233.80
607.50	41569.67
607.70	41127.31
607.90	41076.11
608.09	41039.25
608.29	41190.80
608.49	41151.88
608.68	40994.19
608.88	41256.33
609.08	41332.11
609.28	41366.92
609.47	40871.31
609.67	41176.46
609.87	41362.82
610.06	41321.87
610.26	41317.77
610.46	41618.82
610.66	41272.71
610.85	41385.35
611.05	41289.10
611.25	41454.98
611.44	41037.20
611.64	41358.73
611.84	41366.92
612.03	40889.74
612.23	41416.07
612.43	41444.74
612.62	41307.53
612.82	41295.24
613.02	41196.94
613.21	41375.11
613.41	41315.72
613.61	41446.79
613.80	41252.23
614.00	41299.34
614.20	41387.40
614.39	41301.39
614.59	41391.50
614.79	41039.25
614.98	41289.10
615.18	41305.48
615.38	41739.65
615.57	41239.95
615.77	41710.98
615.97	41237.90
616.16	41409.93
616.36	40764.82
616.56	41538.95
616.75	41338.25
616.95	41018.77
617.15	41325.96
617.34	41350.54
617.54	40975.76
617.74	41393.54
617.93	41606.53
618.13	40807.83
618.32	40961.42
618.52	41297.29
618.72	41516.42
618.91	41383.30
619.11	40840.59
619.31	41168.27
619.50	40959.38
619.70	40824.21
619.90	41106.83
620.09	41264.52
620.29	40998.29
620.48	40932.75
620.68	41225.61
620.88	41074.06
621.07	40650.13
621.27	41168.27
621.46	41006.48
621.66	41307.53
621.86	40805.78
622.05	40805.78
622.25	41123.21
622.44	40758.67
622.64	40789.39
622.84	40949.14
623.03	40191.39
623.23	40895.89
623.42	40750.48
623.62	40754.58
623.82	41332.11
624.01	40856.98
624.21	40275.35
624.40	40727.95
624.60	40238.49
624.80	40500.63
624.99	40695.19
625.19	40580.50
625.38	40674.71
625.58	40689.04
625.77	40656.28
625.97	40801.68
626.17	40486.29
626.36	40517.01
626.56	40613.27
626.75	40236.44
626.95	40912.27
627.14	40457.62
627.34	40922.51
627.54	40656.28
627.73	40555.93
627.93	40523.16
628.12	40265.11
628.32	40234.39
628.51	40506.77
628.71	40342.94
628.90	40146.33
629.10	40623.51
629.30	40750.48
629.49	40170.91
629.69	40574.36
629.88	40097.18
630.08	40760.72
630.27	40347.03
630.47	40535.45
630.66	39861.66
630.86	40701.33
631.05	40283.55
631.25	40406.42
631.44	40773.01
631.64	40101.28
631.84	40158.62
632.03	40834.45
632.23	40197.53
632.42	40465.81
632.62	40439.19
632.81	39962.01
633.01	40312.22
633.20	40275.35
633.40	40365.46
633.59	40471.96
633.79	40195.48
633.98	40142.24
634.18	39990.69
634.37	40252.83
634.57	40166.81
634.76	40097.18
634.96	40361.37
635.15	40234.39
635.35	40125.85
635.54	40050.08
635.74	40560.02
635.93	40017.31
636.13	40285.59
636.32	40404.38
636.52	39767.46
636.71	40273.31
636.91	40261.02
637.10	39957.92
637.30	40238.49
637.49	40125.85
637.69	39517.60
637.88	40170.91
638.08	39978.40
638.27	40318.36
638.46	40017.31
638.66	39941.53
638.85	40293.79
639.05	40308.12
639.24	40283.55
639.44	40179.10
639.63	40408.47
639.83	40244.63
640.02	40033.69
640.22	40111.52
640.41	40201.63
640.61	39656.87
640.80	39957.92
640.99	39951.77
641.19	40474.01
641.38	40166.81
641.58	40138.14
641.77	39851.42
641.97	39818.66
642.16	39712.16
642.36	40054.17
642.55	40150.43
642.74	39792.03
642.94	40385.94
643.13	39728.55
643.33	40175.00
643.52	40236.44
643.72	39998.88
643.91	39882.14
644.10	39962.01
644.30	40256.92
644.49	39888.29
644.69	40476.05
644.88	39972.25
645.08	40017.31
645.27	39843.23
645.46	39912.86
645.66	39984.54
645.85	39798.18
646.05	39742.88
646.24	40269.21
646.43	40158.62
646.63	39916.96
646.82	39689.63
647.02	40088.99
647.21	39914.91
647.40	40068.51
647.60	39974.30
647.79	40195.48
647.99	40093.08
648.18	40199.58
648.37	39959.97
648.57	39945.63
648.76	39835.04
648.96	39925.15
649.15	40121.76
649.34	40031.65
649.54	40471.96
649.73	39677.35
649.92	40033.69
650.12	39996.83
650.31	40007.07
650.51	40148.38
650.70	40080.80
650.89	39794.08
651.09	40162.72
651.28	40101.28
651.47	40238.49
651.67	39622.05
651.86	40316.31
652.06	39495.08
652.25	40019.36
652.44	40039.84
652.64	39937.44
652.83	39855.52
653.02	39835.04
653.22	39921.05
653.41	39716.26
653.60	39263.66
653.80	39249.32
653.99	40062.36
654.18	39957.92
654.38	39919.01
654.57	40074.65
654.76	39466.41
654.96	39558.56
655.15	39478.69
655.34	39646.63
655.54	39669.15
655.73	39697.83
655.92	39839.14
656.12	39828.90
656.31	39822.75
656.50	39742.88
656.70	39538.08
656.89	39605.67
657.08	39773.60
657.28	39867.81
657.47	39560.61
657.66	39675.30
657.86	39550.37
658.05	39505.32
658.24	39650.72
658.43	39656.87
658.63	39835.04
658.82	39564.71
659.01	39742.88
659.21	39853.47
659.40	39916.96
659.59	39335.34
659.79	40054.17
659.98	39718.31
660.17	40142.24
660.36	39761.31
660.56	39495.08
660.75	39607.72
660.94	39640.48
661.14	39843.23
661.33	39708.07
661.52	39429.54
661.71	39546.28
661.91	39486.89
662.10	39392.68
662.29	39450.02
662.49	39505.32
662.68	39611.81
662.87	39706.02
663.06	39572.90
663.26	39447.97
663.45	39400.87
663.64	39490.98
663.83	39394.73
664.03	39695.78
664.22	39343.53
664.41	38976.94
664.60	39048.62
664.80	39472.55
664.99	39482.79
665.18	39458.21
665.37	39654.82
665.57	39521.70
665.76	39513.51
665.95	39179.69
666.14	38839.73
666.34	39146.92
666.53	39562.66
666.72	39017.90
666.91	38829.49
667.11	39191.98
667.30	38913.45
667.49	39099.82
667.68	39138.73
667.87	38942.13
668.07	39214.51
668.26	39232.94
668.45	39028.14
668.64	38757.81
668.84	39275.94
669.03	39155.11
669.22	38895.02
669.41	39095.72
669.60	39126.44
669.80	38788.53
669.99	38741.42
670.18	38880.69
670.37	38868.40
670.57	39337.38
670.76	38809.01
670.95	39079.34
671.14	38704.56
671.33	38976.94
671.53	39140.78
671.72	38665.65
671.91	38591.92
672.10	38542.77
672.29	38632.88
672.48	38714.80
672.68	38770.10
672.87	38751.66
673.06	38839.73
673.25	38483.38
673.44	38596.02
673.64	38909.36
673.83	38477.24
674.02	38589.88
674.21	38368.69
674.40	38806.96
674.59	37854.65
674.79	38188.47
674.98	38368.69
675.17	38208.95
675.36	38374.84
675.55	38497.72
675.74	38354.36
675.94	38290.87
676.13	38403.51
676.32	38354.36
676.51	38782.38
676.70	38315.45
676.89	38497.72
677.08	38534.58
677.28	37969.34
677.47	38124.99
677.66	38229.43
677.85	38069.69
678.04	38452.66
678.23	38464.95
678.42	38469.04
678.62	38170.04
678.81	38182.33
679.00	37625.28
679.19	38161.85
679.38	38122.94
679.57	38143.42
679.76	38036.92
679.96	38213.05
680.15	37924.29
680.34	37723.58
680.53	38413.75
680.72	38034.88
680.91	38167.99
681.10	37938.62
681.29	38034.88
681.48	37537.22
681.68	37858.75
681.87	37572.03
682.06	37891.52
682.25	37492.16
682.44	37893.57
682.63	37731.78
682.82	37578.18
683.01	37361.09
683.20	37619.14
683.39	37717.44
683.59	37371.33
683.78	37205.45
683.97	37197.26
684.16	37729.73
684.35	37336.52
684.54	37660.10
684.73	37158.34
684.92	37213.64
685.11	37219.78
685.30	37217.74
685.49	37354.95
685.69	37553.60
685.88	37148.11
686.07	37426.63
686.26	36693.46
686.45	36865.49
686.64	36906.44
686.83	37017.04
687.02	37162.44
687.21	37033.42
687.40	36971.98
687.59	37113.29
687.78	36924.88
687.97	36914.64
688.16	37127.63
688.35	36863.44
688.54	36775.37
688.74	36552.15
688.93	36851.15
689.12	36775.37
689.31	36959.69
689.50	36541.91
689.69	36335.06
689.88	36152.79
690.07	36410.84
690.26	36453.84
690.45	36734.42
690.64	36681.17
690.83	36699.60
691.02	36261.33
691.21	36433.36
691.40	36206.04
691.59	36513.23
691.78	36474.32
691.97	36419.03
692.16	36144.60
692.35	36218.33
692.54	36148.70
692.73	36414.93
692.92	36197.85
693.11	36210.14
693.30	36218.33
693.49	36140.50
693.68	36021.72
693.87	36011.48
694.06	35667.42
694.25	36093.40
694.44	36169.18
694.63	35726.81
694.82	36201.94
695.01	35941.85
695.20	35632.61
695.39	35812.83
695.58	35952.09
695.77	35722.72
695.96	35857.88
696.15	35843.55
696.34	35511.78
696.53	35775.97
696.72	35612.13
696.91	35438.05
697.10	35689.95
697.29	35245.54
697.48	35560.93
697.67	35010.03
697.86	35345.89
698.05	35440.10
698.24	35597.79
698.43	35319.27
698.62	35259.88
698.81	34983.40
699.00	35368.42
699.19	34993.64
699.38	34995.69
699.57	34926.06
699.76	35403.24
699.95	34958.83
700.14	34829.80
700.32	34760.17
700.51	35220.97
700.70	35405.28
700.89	34629.10
701.08	34893.29
701.27	34702.83
701.46	35259.88
701.65	34637.30
701.84	34653.68
702.03	34766.32
702.22	34371.06
702.41	34817.52
702.60	34862.57
702.79	34706.93
702.98	34631.15
703.17	34274.80
703.35	34811.37
703.54	34575.86
703.73	34794.99
703.92	34715.12
704.11	34485.75
704.30	34008.57
704.49	34569.71
704.68	34235.89
704.87	34239.99
705.06	34381.30
705.25	34221.56
705.43	34231.80
705.62	34313.72
705.81	34045.43
706.00	34356.72
706.19	34113.02
706.38	33885.69
706.57	34020.86
706.76	33871.36
706.95	33953.27
707.14	33906.17
707.32	33869.31
707.51	33893.88
707.70	33986.04
707.89	34020.86
708.08	33760.76
708.27	33699.33
708.46	33928.70
708.65	33654.27
708.84	33558.02
709.02	33439.23
709.21	33461.76
709.40	33779.20
709.59	33822.20
709.78	33295.88
709.97	33437.19
710.16	33467.91
710.34	33496.58
710.53	33625.60
710.72	33271.30
710.91	33089.03
711.10	33109.51
711.29	33148.42
711.48	33283.59
711.66	33244.68
711.85	33089.03
712.04	33109.51
712.23	33238.53
712.42	32976.39
712.61	32618.00
712.80	32798.22
712.98	33236.48
713.17	32902.67
713.36	32751.12
713.55	32677.39
713.74	32634.38
713.93	32974.34
714.11	32716.30
714.30	32521.74
714.49	32124.44
714.68	32390.67
714.87	32810.51
715.06	32566.80
715.24	32439.82
715.43	32448.02
715.62	32570.90
715.81	32497.17
716.00	32572.94
716.18	32161.30
716.37	32013.85
716.56	32120.34
716.75	32310.80
716.94	31993.37
717.12	31903.26
717.31	32411.15
717.50	32087.57
717.69	32038.42
717.88	31796.76
718.06	31970.84
718.25	32081.43
718.44	31581.73
718.63	31764.00
718.82	31751.71
719.00	31634.97
719.19	31680.03
719.38	31540.77
719.57	30971.43
719.76	31475.23
719.94	31321.63
720.13	31059.49
720.32	31176.23
720.51	31266.34
720.69	31335.97
720.88	31022.63
721.07	30932.52
721.26	30981.67
721.44	30948.90
721.63	30877.22
721.82	30881.32
722.01	30697.00
722.20	30713.39
722.38	30860.84
722.57	30778.92
722.76	30639.66
722.95	30905.90
723.13	30408.24
723.32	30459.44
723.51	30123.57
723.70	30438.96
723.88	30299.70
724.07	30062.13
724.26	30393.90
724.44	30162.48
724.63	30342.70
724.82	30043.70
725.01	30043.70
725.19	30418.48
725.38	30101.04
725.57	29752.89
725.76	29701.69
725.94	29750.84
726.13	30086.71
726.32	29834.81
726.51	29767.23
726.69	29978.17
726.88	30125.62
727.07	30086.71
727.25	29785.66
727.44	29775.42
727.63	29646.40
727.82	29730.36
728.00	29642.30
728.19	29711.93
728.38	29963.83
728.56	29333.06
728.75	29941.30
728.94	29550.14
729.12	29791.80
729.31	29699.64
729.50	29249.09
729.69	29705.79
729.87	29677.12
730.06	29531.71
730.25	29367.87
730.43	29707.83
730.62	29355.58
730.81	29681.21
730.99	29421.12
731.18	29515.33
731.37	29427.26
731.55	29318.72
731.74	29386.30
731.93	29376.06
732.11	29247.04
732.30	29431.36
732.49	29302.34
732.67	29607.48
732.86	29363.78
733.05	29353.54
733.23	28907.08
733.42	29292.10
733.61	29331.01
733.79	28792.39
733.98	29183.55
734.17	29111.88
734.35	28966.47
734.54	29195.84
734.73	29281.86
734.91	28857.93
735.10	28847.69
735.29	28892.74
735.47	28833.35
735.66	28862.02
735.84	28855.88
736.03	28644.94
736.22	29120.07
736.40	28841.54
736.59	28646.99
736.78	28696.14
736.96	28692.04
737.15	28769.86
737.33	28681.80
737.52	28706.38
737.71	28642.89
737.89	28630.60
738.08	28479.05
738.27	28415.57
738.45	28741.19
738.64	28458.57
738.82	28689.99
739.01	28495.44
739.20	28370.51
739.38	28446.29
739.57	28659.27
739.75	28450.38
739.94	28343.89
740.13	28204.63
740.31	27813.46
740.50	28063.32
740.68	28274.26
740.87	28329.55
741.06	27907.67
741.24	28053.08
741.43	27862.61
741.61	28085.84
741.80	28085.84
741.99	27807.32
742.17	27907.67
742.36	28067.41
742.54	27659.87
742.73	27795.03
742.91	28042.84
743.10	27756.12
743.29	27756.12
743.47	28202.58
743.66	27502.17
743.84	27737.69
744.03	27631.19
744.21	27639.39
744.40	27776.60
744.59	27903.57
744.77	27381.34
744.96	27473.50
745.14	27692.63
745.33	27506.27
745.51	27442.78
745.70	27653.72
745.88	27360.86
746.07	27334.24
746.26	27219.55
746.44	27096.67
746.63	27612.76
746.81	27254.37
747.00	27143.78
747.18	27262.56
747.37	27197.02
747.55	27373.15
747.74	27403.87
747.92	27100.77
748.11	26832.49
748.29	27004.52
748.48	27219.55
748.66	26766.95
748.85	26783.34
749.03	26840.68
749.22	26916.45
749.41	26707.56
749.59	26797.67
749.78	26977.89
749.96	26613.35
750.15	26707.56
750.33	26947.17
750.52	26840.68
750.70	26674.79
750.89	26449.52
751.07	26297.97
751.26	26369.65
751.44	26527.34
751.63	26545.77
751.81	26310.25
752.00	26328.69
752.18	26449.52
752.37	26529.39
752.55	26402.41
752.74	26457.71
752.92	26275.44
753.10	26375.79
753.29	26355.31
753.47	26193.52
753.66	25833.08
753.84	26201.71
754.03	26109.55
754.21	25941.62
754.40	26390.13
754.58	25925.24
754.77	25812.60
754.95	25929.33
755.14	25730.68
755.32	25753.21
755.51	25728.63
755.69	26027.63
755.88	25714.30
756.06	25941.62
756.24	25755.26
756.43	25788.02
756.61	25902.71
756.80	26041.97
756.98	25646.71
757.17	25828.98
757.35	25470.59
757.54	25642.62
757.72	25882.23
757.90	25550.46
758.09	25407.10
758.27	25613.95
758.46	25587.32
758.64	25384.57
758.83	25581.18
759.01	25241.21
759.19	25382.52
759.38	25108.10
759.56	25624.18
759.75	25472.64
759.93	25527.93
760.12	25396.86
760.30	25183.87
760.48	25292.41
760.67	25101.95
760.85	25181.82
761.04	25089.67
761.22	25161.34
761.40	25278.08
761.59	24999.55
761.77	24743.56
761.96	24743.56
762.14	24827.53
762.32	24641.16
762.51	24702.60
762.69	24700.55
762.88	24741.51
763.06	24815.24
763.24	24696.46
763.43	24774.28
763.61	24596.10
763.80	24917.64
763.98	24565.39
764.16	24399.50
764.35	24364.68
764.53	24516.23
764.72	24329.87
764.90	24577.67
765.08	24592.01
765.27	24669.83
765.45	24422.03
765.63	24120.98
765.82	24680.07
766.00	24141.46
766.18	24354.44
766.37	24446.60
766.55	24096.40
766.74	24364.68
766.92	24385.16
767.10	24303.25
767.29	24002.19
767.47	24006.29
767.65	24290.96
767.84	23897.75
768.02	24147.60
768.20	23862.93
768.39	24061.58
768.57	24028.82
768.75	23979.67
768.94	24092.30
769.12	24196.75
769.30	23613.08
769.49	23955.09
769.67	23879.32
769.85	23684.76
770.04	23623.32
770.22	23754.39
770.40	23305.88
770.59	23625.37
770.77	23783.06
770.95	23506.59
771.14	23363.23
771.32	23348.89
771.50	23297.69
771.69	23443.10
771.87	23465.63
772.05	23461.53
772.24	23232.16
772.42	23320.22
772.60	23576.22
772.78	23195.29
772.97	23318.17
773.15	23352.99
773.33	23309.98
773.52	23168.67
773.70	23160.48
773.88	23752.34
774.07	22976.16
774.25	23352.99
774.43	23242.40
774.61	23064.22
774.80	23502.49
774.98	23248.54
775.16	23121.57
775.34	22955.68
775.53	22994.59
775.71	23260.83
775.89	23299.74
776.08	22949.54
776.26	23207.58
776.44	23238.30
776.62	22914.72
776.81	22931.11
776.99	22908.58
777.17	22806.18
777.35	23375.52
777.54	23494.30
777.72	23156.38
777.90	22920.87
778.08	23391.90
778.27	23199.39
778.45	23361.18
778.63	23262.88
778.81	23105.18
779.00	23400.09
779.18	23336.60
779.36	23406.23
779.54	23166.62
779.73	23185.05
779.91	23266.97
780.09	23387.80
780.27	23436.95
780.46	23287.45
780.64	23553.69
780.82	23074.46
781.00	23172.77
781.19	23522.97
781.37	23232.16
781.55	23131.81
781.73	23471.77
781.91	23416.47
782.10	23367.32
782.28	23373.47
782.46	23103.14
782.64	23140.00
782.82	23107.23
783.01	23322.27
783.19	23484.06
783.37	23563.93
783.55	23305.88
783.74	23379.61
783.92	23150.24
784.10	23381.66
784.28	23357.08
784.46	23140.00
784.64	23344.80
784.83	23260.83
785.01	23285.40
785.19	23185.05
785.37	23365.28
785.55	23119.52
785.74	22902.43
785.92	22884.00
786.10	23025.31
786.28	22929.06
786.46	23062.18
786.64	22838.95
786.83	22873.76
787.01	23031.46
787.19	23092.90
787.37	22836.90
787.55	22771.36
787.74	22711.97
787.92	22996.64
788.10	22619.81
788.28	22548.14
788.46	22761.12
788.64	22767.27
788.82	22650.53
789.01	22458.03
789.19	22822.56
789.37	22654.63
789.55	22525.61
789.73	22455.98
789.91	22445.74
790.09	22556.33
790.28	22492.84
790.46	22433.45
790.64	22595.24
790.82	22341.29
791.00	22183.60
791.18	21964.46
791.36	22140.59
791.55	22058.67
791.73	22171.31
791.91	22118.06
792.09	22023.86
792.27	22169.26
792.45	21993.14
792.63	21864.11
792.81	21769.91
793.00	21739.19
793.18	21667.51
793.36	21661.37
793.54	21802.68
793.72	21708.47
793.90	21513.91
794.08	21716.66
794.26	21765.81
794.44	21368.51
794.62	21333.69
794.81	21487.29
794.99	21411.51
795.17	21546.68
795.35	21159.61
795.53	21210.81
795.71	21251.77
795.89	21192.38
796.07	20684.48
796.25	21012.16
796.43	21120.70
796.61	20887.23
796.80	20774.60
796.98	20969.15
797.16	20739.78
797.34	20664.00
797.52	20616.90
797.70	20971.20
797.88	20793.03
798.06	20592.33
798.24	20743.88
798.42	20586.18
798.60	20506.31
798.78	20432.58
798.96	20580.04
799.14	20270.79
799.32	20192.97
799.51	20459.21
799.69	20268.75
799.87	20203.21
800.05	20162.25
800.23	20180.68
800.41	20022.99
800.59	19896.02
800.77	20104.91
800.95	19715.80
801.13	19627.73
801.31	19652.31
801.49	19914.45
801.67	19853.01
801.85	19707.60
802.03	19678.93
802.21	19707.60
802.39	19844.82
802.57	19594.96
802.75	19431.13
802.93	19431.13
803.11	19582.68
803.29	19207.90
803.47	19111.64
803.65	19367.64
803.83	19232.47
804.01	19300.06
804.19	19134.17
804.37	18847.46
804.55	19341.02
804.73	19216.09
804.91	19015.39
805.09	18923.23
805.27	18747.11
805.45	18855.65
805.63	19078.88
805.81	18525.93
805.99	18804.45
806.17	18915.04
806.35	18769.63
806.53	18446.05
806.71	18788.07
806.89	18511.59
807.07	18497.25
807.25	18411.24
807.43	18458.34
807.61	18437.86
807.79	18357.99
807.97	18497.25
808.15	18396.90
808.33	18292.46
808.51	18253.55
808.69	18097.90
808.87	18204.39
809.05	18058.99
809.23	18056.94
809.41	17856.24
809.59	18032.36
809.77	18110.19
809.95	17743.60
810.13	17878.77
810.31	17798.90
810.49	17518.32
810.67	17843.95
810.84	17733.36
811.02	17661.68
811.20	17544.95
811.38	17536.76
811.56	17614.58
811.74	17753.84
811.92	17458.93
812.10	17426.17
812.28	17381.11
812.46	17581.81
812.64	17215.23
812.82	17366.78
813.00	17209.08
813.18	17393.40
813.36	17379.06
813.53	17151.74
813.71	17182.46
813.89	17133.31
814.07	17374.97
814.25	17133.31
814.43	16965.37
814.61	16860.93
814.79	16885.50
814.97	16992.00
815.15	17012.48
815.33	16617.22
815.50	16500.48
815.68	16799.49
815.86	17098.49
816.04	16500.48
816.22	16637.70
816.40	16541.44
816.58	16668.42
816.76	16563.97
816.94	16516.87
817.11	16367.37
817.29	16609.03
817.47	16246.54
817.65	16574.21
817.83	16406.28
818.01	16146.19
818.19	16178.95
818.37	16312.07
818.54	16086.79
818.72	15947.53
818.90	16121.61
819.08	16027.40
819.26	16156.43
819.44	16045.84
819.62	15849.23
819.80	16097.03
819.97	16117.51
820.15	15863.57
820.33	15890.19
820.51	15900.43
820.69	15740.69
820.87	15871.76
821.05	15769.36
821.22	15875.85
821.40	15675.15
821.58	15597.33
821.76	15585.04
821.94	15619.86
822.12	15613.71
822.29	15451.92
822.47	15523.60
822.65	15724.30
822.83	15466.26
823.01	15396.63
823.19	15484.69
823.36	15384.34
823.54	15431.44
823.72	15558.42
823.90	15324.95
824.08	15425.30
824.25	15339.29
824.43	15154.97
824.61	15343.38
824.79	15363.86
824.97	15148.82
825.15	15290.13
825.32	15273.75
825.50	14892.83
825.68	15107.87
825.86	15132.44
826.04	14888.73
826.21	14833.44
826.39	14868.25
826.57	14733.09
826.75	14972.70
826.93	14935.84
827.10	14984.99
827.28	14835.49
827.46	14896.92
827.64	14862.11
827.81	14786.33
827.99	14743.33
828.17	14823.20
828.35	14927.64
828.53	14743.33
828.70	14444.32
828.88	14642.98
829.06	14817.05
829.24	14602.02
829.41	14307.11
829.59	14518.05
829.77	14393.12
829.95	14370.60
830.12	14456.61
830.30	14368.55
830.48	14542.63
830.66	14245.67
830.84	14391.08
831.01	14229.29
831.19	14137.13
831.37	14155.56
831.55	14208.81
831.72	14362.40
831.90	14231.33
832.08	14171.94
832.25	14065.45
832.43	14198.57
832.61	14151.46
832.79	14155.56
832.96	13991.72
833.14	14276.39
833.32	14227.24
833.50	13995.82
833.67	13993.77
833.85	13918.00
834.03	13868.84
834.20	14059.31
834.38	13852.46
834.56	14006.06
834.74	13862.70
834.91	13856.56
835.09	13719.34
835.27	13623.09
835.44	13776.69
835.62	13657.90
835.80	13541.17
835.98	13807.41
836.15	13700.91
836.33	13758.25
836.51	13838.12
836.68	13553.46
836.86	13455.15
837.04	13608.75
837.21	13438.77
837.39	13512.50
837.57	13766.45
837.75	13602.61
837.92	13692.72
838.10	13530.93
838.28	13330.23
838.45	13559.60
838.63	13211.45
838.81	13541.17
838.98	13266.74
839.16	13319.99
839.34	13174.58
839.51	13262.65
839.69	13166.39
839.87	13260.60
840.04	13207.35
840.22	13334.32
840.40	13401.91
840.57	13188.92
840.75	13211.45
840.93	13117.24
841.10	13276.98
841.28	13143.86
841.46	13074.23
841.63	13236.02
841.81	13113.14
841.98	12855.10
842.16	12975.93
842.34	13096.76
842.51	13043.51
842.69	13162.30
842.87	12855.10
843.04	12937.02
843.22	12953.40
843.40	13127.48
843.57	12816.19
843.75	12736.32
843.92	12879.68
844.10	12656.45
844.28	12910.40
844.45	12750.65
844.63	12902.20
844.81	12644.16
844.98	12631.87
845.16	12570.43
845.33	12611.39
845.51	12418.88
845.69	12570.43
845.86	12580.67
846.04	12609.34
846.21	12549.95
846.39	12465.99
846.57	12564.29
846.74	12414.79
846.92	12332.87
847.09	12422.98
847.27	12525.38
847.45	12422.98
847.62	12484.42
847.80	12468.03
847.97	12410.69
848.15	12506.95
848.32	12138.31
848.50	12339.01
848.68	12271.43
848.85	12171.08
849.03	12017.48
849.20	12390.21
849.38	12461.89
849.56	12191.56
849.73	12070.73
849.91	12318.53
850.08	12140.36
850.26	12060.49
850.43	12169.03
850.61	12062.54
850.78	12046.15
850.96	11956.04
851.14	12171.08
851.31	12062.54
851.49	11958.09
851.66	12263.24
851.84	11958.09
852.01	12265.28
852.19	12113.74
852.36	11827.02
852.54	11962.19
852.71	12017.48
852.89	12035.91
853.07	12121.93
853.24	11759.44
853.42	11808.59
853.59	11720.53
853.77	11847.50
853.94	11771.72
854.12	11771.72
854.29	11644.75
854.47	11726.67
854.64	11732.81
854.82	11667.28
854.99	11624.27
855.17	11636.56
855.34	11435.86
855.52	11693.90
855.69	11687.76
855.87	11507.54
856.04	11544.40
856.22	11720.53
856.39	11325.27
856.57	11401.04
856.74	11452.24
856.92	11532.11
857.09	11550.54
857.27	11358.03
857.44	11485.01
857.62	11323.22
857.79	11382.61
857.97	11470.67
858.14	11321.17
858.32	11261.78
858.49	11321.17
858.67	11290.45
858.84	11233.11
859.02	11497.30
859.19	11315.03
859.37	11231.06
859.54	11208.53
859.72	11263.83
859.89	10948.44
860.06	10923.87
860.24	11112.28
860.41	11102.04
860.59	11046.74
860.76	11147.09
860.94	10880.86
861.11	10858.33
861.29	10925.91
861.46	11054.94
861.64	10891.10
861.81	10975.06
861.98	10823.51
862.16	10911.58
862.33	10868.57
862.51	10600.29
862.68	10774.36
862.86	10800.99
863.03	10786.65
863.21	10645.34
863.38	10733.40
863.55	10757.98
863.73	10749.79
863.90	10854.23
864.08	10669.92
864.25	10708.83
864.43	10708.83
864.60	10690.40
864.77	10635.10
864.95	10702.68
865.12	10547.04
865.30	10639.20
865.47	10422.11
865.64	10469.22
865.82	10803.04
865.99	10571.61
866.17	10395.49
866.34	10418.02
866.51	10229.60
866.69	10674.01
866.86	10422.11
867.04	10293.09
867.21	10223.46
867.38	10182.50
867.56	10225.51
867.73	10481.50
867.91	10282.85
868.08	10348.39
868.25	10143.59
868.43	10245.99
868.60	10182.50
868.78	10008.42
868.95	10182.50
869.12	10108.77
869.30	10129.25
869.47	10289.00
869.64	10030.95
869.82	9881.45
869.99	10028.90
870.16	9996.14
870.34	10035.05
870.51	10028.90
870.69	10090.34
870.86	10039.14
871.03	9848.68
871.21	9738.09
871.38	9879.40
871.55	9817.96
871.73	9668.46
871.90	9832.30
872.07	9549.68
872.25	9529.20
872.42	9967.46
872.59	9539.44
872.77	9697.13
872.94	9541.49
873.11	9639.79
873.29	9537.39
873.46	9627.50
873.63	9432.94
873.81	9539.44
873.98	9559.92
874.15	9410.42
874.33	9344.88
874.50	9500.53
874.67	9492.34
874.85	9344.88
875.02	9088.89
875.19	9238.39
875.37	9267.06
875.54	9297.78
875.71	9222.00
875.88	9060.21
876.06	9152.37
876.23	9105.27
876.40	9236.34
876.58	9054.07
876.75	9244.53
876.92	9049.97
877.10	9101.17
877.27	9166.71
877.44	9031.54
877.61	8923.00
877.79	9049.97
877.96	9039.73
878.13	9039.73
878.31	8957.82
878.48	8894.33
878.65	8980.34
878.82	8871.80
879.00	8955.77
879.17	8775.55
879.34	8898.42
879.51	9013.11
879.69	8851.32
879.86	8892.28
880.03	8720.25
880.21	8591.23
880.38	8861.56
880.55	8763.26
880.72	8789.88
880.90	8777.59
881.07	8722.30
881.24	8759.16
881.41	8703.87
881.59	8587.13
881.76	8769.40
881.93	8652.67
882.10	8705.92
882.28	8712.06
882.45	8722.30
882.62	8777.59
882.79	8593.28
882.96	8449.92
883.14	8595.32
883.31	8783.74
883.48	8544.13
883.65	8783.74
883.83	8712.06
884.00	8435.58
884.17	8537.98
884.34	8738.68
884.51	8445.82
884.69	8648.57
884.86	8408.96
885.03	8550.27
885.20	8533.89
885.38	8464.25
885.55	8507.26
885.72	8437.63
885.89	8368.00
886.06	8499.07
886.24	8468.35
886.41	8380.29
886.58	8361.86
886.75	8427.39
886.92	8316.80
887.10	8402.82
887.27	8388.48
887.44	8382.34
887.61	8359.81
887.78	8320.90
887.95	8460.16
888.13	8253.31
888.30	8322.94
888.47	8200.07
888.64	8218.50
888.81	8212.35
888.99	8273.79
889.16	8208.26
889.33	8163.20
889.50	8191.88
889.67	8279.94
889.84	8105.86
890.01	8193.92
890.19	8030.09
890.36	8171.40
890.53	8161.16
890.70	7968.65
890.87	8046.47
891.04	7993.22
891.22	8107.91
891.39	7976.84
891.56	8019.85
891.73	7823.24
891.90	7954.31
892.07	7935.88
892.24	7997.32
892.42	7995.27
892.59	7903.11
892.76	7851.91
892.93	8019.85
893.10	7974.79
893.27	7892.87
893.44	7858.06
893.61	7843.72
893.79	7874.44
893.96	7847.82
894.13	7856.01
894.30	7931.78
894.47	7798.66
894.64	8099.72
894.81	7798.66
894.98	7827.34
895.15	7731.08
895.33	7759.75
895.50	7661.45
895.67	7827.34
895.84	7901.06
896.01	7743.37
896.18	7552.91
896.35	7759.75
896.52	7839.62
896.69	7520.14
896.86	7710.60
897.04	7751.56
897.21	7595.92
897.38	7602.06
897.55	7643.02
897.72	7724.94
897.89	7659.40
898.06	7681.93
898.23	7557.00
898.40	7593.87
898.57	7786.38
898.74	7739.27
898.91	7714.70
899.08	7751.56
899.26	7638.92
899.43	7606.16
899.60	7425.93
899.77	7665.55
899.94	7528.33
900.11	7440.27
900.28	7550.86
900.45	7491.47
900.62	7538.57
900.79	7501.71
900.96	7409.55
901.13	7628.68
901.30	7557.00
901.47	7436.17
901.64	7550.86
901.81	7587.72
901.98	7382.93
902.15	7561.10
902.32	7421.84
902.49	7532.43
902.66	7612.30
902.83	7301.01
903.01	7532.43
903.18	7409.55
903.35	7567.24
903.52	7583.63
903.69	7446.41
903.86	7450.51
904.03	7542.67
904.20	7567.24
904.37	7520.14
904.54	7415.69
904.71	7389.07
904.88	7466.89
905.05	7413.65
905.22	7305.10
905.39	7161.75
905.56	7350.16
905.73	7534.48
905.90	7530.38
906.07	7434.13
906.24	7454.61
906.41	7526.29
906.58	7483.28
906.75	7337.87
906.92	7315.34
907.09	7466.89
907.26	7374.74
907.43	7389.07
907.60	7280.53
907.77	7477.13
907.93	7319.44
908.10	7448.46
908.27	7335.82
908.44	7286.67
908.61	7311.25
908.78	7378.83
908.95	7186.32
909.12	7221.14
909.29	7114.64
909.46	7186.32
909.63	7321.49
909.80	7239.57
909.97	7331.73
910.14	7329.68
910.31	7100.31
910.48	7165.84
910.65	7092.12
910.82	7083.92
910.99	7202.71
911.16	7079.83
911.33	7032.72
911.50	7237.52
911.66	7098.26
911.83	7049.11
912.00	7057.30
912.17	7059.35
912.34	7045.01
912.51	7200.66
912.68	6961.05
912.85	7122.84
913.02	7155.60
913.19	7069.59
913.36	6936.47
913.53	6840.22
913.70	6899.61
913.86	6897.56
914.03	6995.86
914.20	6934.42
914.37	6893.46
914.54	6901.65
914.71	6965.14
914.88	6983.57
915.05	6889.37
915.22	6899.61
915.39	6934.42
915.55	6791.06
915.72	6735.77
915.89	6870.94
916.06	6791.06
916.23	6809.50
916.40	6649.75
916.57	6752.15
916.74	6786.97
916.91	6731.67
917.07	6645.66
917.24	6598.56
917.41	6684.57
917.58	6655.90
917.75	6612.89
917.92	6541.21
918.09	6467.49
918.26	6664.09
918.42	6619.04
918.59	6649.75
918.76	6406.05
918.93	6420.38
919.10	6367.13
919.27	6404.00
919.44	6492.06
919.60	6412.19
919.77	6379.42
919.94	6354.85
920.11	6424.48
920.28	6391.71
920.45	6145.95
920.61	6246.30
920.78	6252.45
920.95	6334.37
921.12	6182.82
921.29	6217.63
921.46	6254.50
921.62	6086.56
921.79	6064.04
921.96	6137.76
922.13	6002.60
922.30	6000.55
922.47	6139.81
922.63	6012.84
922.80	5930.92
922.97	5930.92
923.14	5769.13
923.31	6000.55
923.47	5965.73
923.64	5922.73
923.81	5830.57
923.98	5943.21
924.15	5810.09
924.32	5906.34
924.48	5892.01
924.65	5857.19
924.82	5711.78
924.99	5756.84
925.15	5679.02
925.32	5713.83
925.49	5668.78
925.66	5722.02
925.83	5560.24
925.99	5670.83
926.16	5593.00
926.33	5601.19
926.50	5533.61
926.67	5625.77
926.83	5547.95
927.00	5537.71
927.17	5478.32
927.34	5486.51
927.50	5599.15
927.67	5410.73
927.84	5552.04
928.01	5341.10
928.17	5390.25
928.34	5441.45
928.51	5302.19
928.68	5259.18
928.84	5259.18
929.01	5216.18
929.18	5285.81
929.35	5339.05
929.51	5150.64
929.68	5167.03
929.85	5210.03
930.02	5189.55
930.18	5150.64
930.35	5062.58
930.52	5138.35
930.69	5019.57
930.85	5189.55
931.02	4890.55
931.19	5023.67
931.36	4966.32
931.52	5005.24
931.69	4954.04
931.86	4913.08
932.02	4829.11
932.19	4788.15
932.36	4943.80
932.53	4962.23
932.69	4777.91
932.86	4925.36
933.03	4759.48
933.19	4616.12
933.36	4593.59
933.53	4796.34
933.70	4585.40
933.86	4573.11
934.03	4607.93
934.20	4542.39
934.36	4720.57
934.53	4579.26
934.70	4634.55
934.86	4415.42
935.03	4437.95
935.20	4435.90
935.36	4433.85
935.53	4380.61
935.70	4407.23
935.86	4347.84
936.03	4229.06
936.20	4247.49
936.36	4124.61
936.53	4202.43
936.70	4192.19
936.86	4210.62
937.03	4140.99
937.20	4159.42
937.36	4122.56
937.53	3968.96
937.70	3903.43
937.86	3952.58
938.03	3887.04
938.20	4014.02
938.36	3794.89
938.53	3770.31
938.70	3796.93
938.86	3760.07
939.03	3823.56
939.20	3692.49
939.36	3733.45
939.53	3641.29
939.70	3667.91
939.86	3588.04
940.03	3577.80
940.19	3504.07
940.36	3475.40
940.53	3526.60
940.69	3495.88
940.86	3387.34
941.03	3436.49
941.19	3375.05
941.36	3403.72
941.52	3317.71
941.69	3307.47
941.86	3286.99
942.02	3215.31
942.19	3276.75
942.35	3280.85
942.52	3190.74
942.69	3063.76
942.85	3067.86
943.02	3164.11
943.18	3221.45
943.35	3098.58
943.52	3139.54
943.68	3088.34
943.85	3119.06
944.01	3014.61
944.18	3028.95
944.35	3041.23
944.51	2971.60
944.68	2871.25
944.84	2867.16
945.01	2928.60
945.17	2942.93
945.34	2920.40
945.51	2885.59
945.67	2965.46
945.84	3033.04
946.00	2830.29
946.17	2926.55
946.33	2807.77
946.50	2869.20
946.67	2963.41
946.83	2887.64
947.00	2885.59
947.16	2822.10
947.33	2858.96
947.49	2844.63
947.66	2826.20
947.82	2762.71
947.99	2883.54
948.16	2809.81
948.32	2836.44
948.49	2770.90
948.65	2809.81
948.82	2721.75
948.98	2727.89
949.15	2789.33
949.31	2752.47
949.48	2719.70
949.64	2830.29
949.81	2858.96
949.97	2813.91
950.14	2770.90
950.30	2793.43
950.47	2777.05
950.63	2871.25
950.80	2908.12
950.96	2742.23
951.13	2766.81
951.30	2801.62
951.46	2705.37
951.63	2768.85
951.79	2666.46
951.96	2789.33
952.12	2744.28
952.29	2766.81
952.45	2738.13
952.62	2830.29
952.78	2777.05
952.94	2731.99
953.11	2703.32
953.27	2725.85
953.44	2836.44
953.60	2693.08
953.77	2738.13
953.93	2594.78
954.10	2715.61
954.26	2639.83
954.43	2705.37
954.59	2801.62
954.76	2754.52
954.92	2756.57
955.09	2734.04
955.25	2713.56
955.42	2764.76
955.58	2662.36
955.75	2844.63
955.91	2709.46
956.07	2760.66
956.24	2707.41
956.40	2637.78
956.57	2721.75
956.73	2668.50
956.90	2691.03
957.06	2557.91
957.23	2699.22
957.39	2699.22
957.56	2715.61
957.72	2676.70
957.88	2643.93
958.05	2684.89
958.21	2801.62
958.38	2734.04
958.54	2613.21
958.71	2699.22
958.87	2625.50
959.03	2656.22
959.20	2547.67
959.36	2580.44
959.53	2641.88
959.69	2619.35
959.85	2633.69
960.02	2566.10
960.18	2602.97
960.35	2588.63
960.51	2584.54
960.68	2629.59
960.84	2641.88
961.00	2611.16
961.17	2582.49
961.33	2680.79
961.50	2537.43
961.66	2605.02
961.82	2643.93
961.99	2633.69
962.15	2549.72
962.31	2555.86
962.48	2695.13
962.64	2568.15
962.81	2523.10
962.97	2633.69
963.13	2469.85
963.30	2660.31
963.46	2582.49
963.62	2607.06
963.79	2514.91
963.95	2568.15
964.12	2447.32
964.28	2572.25
964.44	2547.67
964.61	2572.25
964.77	2539.48
964.93	2643.93
965.10	2535.39
965.26	2463.71
965.42	2557.91
965.59	2559.96
965.75	2549.72
965.92	2529.24
966.08	2594.78
966.24	2453.47
966.41	2484.19
966.57	2502.62
966.73	2471.90
966.90	2652.12
967.06	2506.71
967.22	2539.48
967.39	2525.15
967.55	2531.29
967.71	2447.32
967.88	2566.10
968.04	2553.82
968.20	2430.94
968.37	2498.52
968.53	2445.27
968.69	2465.75
968.85	2533.34
969.02	2492.38
969.18	2455.51
969.34	2463.71
969.51	2439.13
969.67	2441.18
969.83	2435.03
970.00	2543.58
970.16	2426.84
970.32	2521.05
970.48	2519.00
970.65	2504.67
970.81	2447.32
970.97	2484.19
971.14	2371.55
971.30	2521.05
971.46	2439.13
971.63	2523.10
971.79	2398.17
971.95	2432.99
972.11	2373.60
972.28	2443.23
972.44	2406.36
972.60	2402.27
972.76	2373.60
972.93	2394.08
973.09	2478.04
973.25	2443.23
973.42	2351.07
973.58	2494.43
973.74	2416.60
973.90	2361.31
974.07	2355.16
974.23	2326.49
974.39	2475.99
974.55	2328.54
974.72	2365.40
974.88	2299.87
975.04	2398.17
975.20	2254.81
975.37	2342.88
975.53	2400.22
975.69	2316.25
975.85	2377.69
976.01	2400.22
976.18	2453.47
976.34	2351.07
976.50	2418.65
976.66	2398.17
976.83	2297.82
976.99	2263.01
977.15	2336.73
977.31	2344.92
977.47	2297.82
977.64	2258.91
977.80	2330.59
977.96	2308.06
978.12	2297.82
978.29	2355.16
978.45	2371.55
978.61	2250.72
978.77	2267.10
978.93	2301.92
979.10	2406.36
979.26	2232.29
979.42	2238.43
979.58	2314.20
979.74	2338.78
979.91	2215.90
980.07	2293.72
980.23	2297.82
980.39	2211.81
980.55	2258.91
980.71	2215.90
980.88	2269.15
981.04	2334.68
981.20	2230.24
981.36	2240.48
981.52	2314.20
981.68	2299.87
981.85	2205.66
982.01	2287.58
982.17	2166.75
982.33	2189.28
982.49	2308.06
982.65	2150.37
982.82	2203.61
982.98	2340.83
983.14	2154.46
983.30	2156.51
983.46	2205.66
983.62	2215.90
983.79	2164.70
983.95	2170.85
984.11	2164.70
984.27	2166.75
984.43	2201.57
984.59	2176.99
984.75	2156.51
984.91	2209.76
985.08	2248.67
985.24	2207.71
985.40	2070.50
985.56	2224.09
985.72	2238.43
985.88	2207.71
986.04	2181.09
986.20	2215.90
986.37	2232.29
986.53	2129.89
986.69	2193.37
986.85	2107.36
987.01	2211.81
987.17	2213.85
987.33	2160.61
987.49	2121.70
987.65	2183.13
987.82	2066.40
987.98	2072.54
988.14	2148.32
988.30	2213.85
988.46	2187.23
988.62	2093.02
988.78	2148.32
988.94	2105.31
989.10	2181.09
989.26	2084.83
989.42	2179.04
989.59	2043.87
989.75	2052.06
989.91	2138.08
990.07	2074.59
990.23	2115.55
990.39	2099.17
990.55	2166.75
990.71	2185.18
990.87	2062.30
991.03	2150.37
991.19	2054.11
991.35	2148.32
991.51	2158.56
991.67	2146.27
991.83	2111.46
992.00	2029.54
992.16	2113.50
992.32	2070.50
992.48	2062.30
992.64	2090.98
992.80	2031.58
992.96	2099.17
993.12	2068.45
993.28	2146.27
993.44	2050.02
993.60	2179.04
993.76	2086.88
993.92	2072.54
994.08	2025.44
994.24	2050.02
994.40	2117.60
994.56	2105.31
994.72	2047.97
994.88	2113.50
995.04	2029.54
995.20	2004.96
995.36	2029.54
995.52	2013.15
995.68	2113.50
995.84	2062.30
996.00	2056.16
996.16	2023.39
996.32	2056.16
996.48	2105.31
996.64	1966.05
996.80	2027.49
996.96	2095.07
997.12	2113.50
997.28	2064.35
997.44	2002.91
997.60	2041.82
997.76	2041.82
997.92	2062.30
998.08	2021.35
998.24	2009.06
998.40	2023.39
998.56	2041.82
998.72	1949.67
998.88	1947.62
999.04	1923.04
999.20	1935.33
999.36	1974.24
999.52	2015.20
999.68	2029.54
999.84	1968.10
1000.00	1945.57
1000.16	2002.91
1000.32	1990.63
1000.48	2023.39
1000.64	1939.43
1000.80	1986.53
1000.95	1959.91
1001.11	1994.72
1001.27	2033.63
1001.43	1955.81
1001.59	2004.96
1001.75	1839.08
1001.91	1935.33
1002.07	1857.51
1002.23	1939.43
1002.39	1914.85
1002.55	1912.80
1002.71	1892.32
1002.87	1974.24
1003.03	1910.75
1003.19	1914.85
1003.34	1959.91
1003.50	1953.76
1003.66	1898.47
1003.82	1906.66
1003.98	1943.52
1004.14	1935.33
1004.30	1920.99
1004.46	1961.95
1004.62	2000.87
1004.78	1886.18
1004.94	1888.23
1005.09	1961.95
1005.25	1992.67
1005.41	1900.52
1005.57	1927.14
1005.73	1826.79
1005.89	1896.42
1006.05	1931.23
1006.21	1882.08
1006.37	1873.89
1006.52	1880.04
1006.68	1828.84
1006.84	1931.23
1007.00	1816.55
1007.16	1933.28
1007.32	1875.94
1007.48	1855.46
1007.64	1908.71
1007.79	1841.12
1007.95	1980.39
1008.11	1875.94
1008.27	1863.65
1008.43	1812.45
1008.59	1882.08
1008.75	1818.60
1008.91	1845.22
1009.06	1904.61
1009.22	1882.08
1009.38	1859.56
1009.54	1806.31
1009.70	1826.79
1009.86	1767.40
1010.01	1888.23
1010.17	1920.99
1010.33	1853.41
1010.49	1912.80
1010.65	1869.80
1010.81	1818.60
1010.96	1853.41
1011.12	1857.51
1011.28	1767.40
1011.44	1800.16
1011.60	1847.27
1011.76	1880.04
1011.91	1863.65
1012.07	1826.79
1012.23	1808.36
1012.39	1863.65
1012.55	1880.04
1012.71	1818.60
1012.86	1810.40
1013.02	1810.40
1013.18	1800.16
1013.34	1859.56
1013.50	1849.32
1013.65	1832.93
1013.81	1783.78
1013.97	1830.88
1014.13	1865.70
1014.29	1830.88
1014.44	1871.84
1014.60	1742.82
1014.76	1826.79
1014.92	1888.23
1015.07	1855.46
1015.23	1824.74
1015.39	1808.36
1015.55	1822.69
1015.71	1828.84
1015.86	1845.22
1016.02	1810.40
1016.18	1724.39
1016.34	1812.45
1016.49	1851.36
1016.65	1855.46
1016.81	1771.49
1016.97	1824.74
1017.12	1783.78
1017.28	1701.86
1017.44	1740.77
1017.60	1830.88
1017.75	1761.25
1017.91	1773.54
1018.07	1837.03
1018.23	1769.44
1018.38	1775.59
1018.54	1804.26
1018.70	1753.06
1018.86	1724.39
1019.01	1759.21
1019.17	1769.44
1019.33	1785.83
1019.49	1843.17
1019.64	1779.68
1019.80	1744.87
1019.96	1841.12
1020.12	1755.11
1020.27	1810.40
1020.43	1699.81
1020.59	1826.79
1020.74	1742.82
1020.90	1832.93
1021.06	1740.77
1021.22	1789.92
1021.37	1802.21
1021.53	1730.53
1021.69	1757.16
1021.84	1691.62
1022.00	1726.44
1022.16	1689.57
1022.31	1763.30
1022.47	1744.87
1022.63	1791.97
1022.79	1746.92
1022.94	1689.57
1023.10	1794.02
1023.26	1732.58
1023.41	1779.68
1023.57	1726.44
1023.73	1755.11
1023.88	1744.87
1024.04	1708.01
1024.20	1691.62
1024.35	1736.68
1024.51	1714.15
1024.67	1687.53
1024.82	1796.07
1024.98	1697.77
1025.14	1730.53
1025.29	1693.67
1025.45	1720.29
1025.61	1654.76
1025.76	1677.29
1025.92	1648.61
1026.08	1794.02
1026.23	1748.97
1026.39	1757.16
1026.55	1759.21
1026.70	1665.00
1026.86	1722.34
1027.02	1742.82
1027.17	1710.05
1027.33	1746.92
1027.48	1699.81
1027.64	1667.05
1027.80	1652.71
1027.95	1687.53
1028.11	1683.43
1028.27	1724.39
1028.42	1658.85
1028.58	1732.58
1028.73	1710.05
1028.89	1675.24
1029.05	1726.44
1029.20	1730.53
>>>>>End Processed Spectral Data<<<<<
